TrialType,Top,Left,Right,EmptyFrame,SelectedFrame,Correct,Emotion,Gender,TrialLength,FixationLength,n,GCFaceStartTime_mean,GCFaceStartTime_raw,GCFaceStartTime_std,GCPostFaceFixationEndTime_mean,GCPostFaceFixationEndTime_raw,GCPostFaceFixationEndTime_std,GCPostFaceFixationStartTime_mean,GCPostFaceFixationStartTime_raw,GCPostFaceFixationStartTime_std,key_resp_trial.corr_mean,key_resp_trial.corr_raw,key_resp_trial.corr_std,key_resp_trial.keys_raw,key_resp_trial.rt_mean,key_resp_trial.rt_raw,key_resp_trial.rt_std,order
MatchFaces,stimuli/MatchFaces.bmp,stimuli/EmptyFace.bmp,stimuli/EmptyFace.bmp,stimuli/EmptyFrame.bmp,stimuli/EmptyFrame.bmp,Null,None,None,3,1,1.0,15.197718620300293,15.197718620300293,0.0,19.0267333984375,19.0267333984375,0.0,18.038192749023438,18.038192749023438,0.0,0.0,0.0,0.0,,,,,0.0
Anger,stimuli/01F_AN_O.bmp,stimuli/19F_AN_O.BMP,stimuli/01F_AN_O.bmp,stimuli/EmptyFrame.bmp,stimuli/RedFrame.bmp,2,Anger,Female,3,1,1.0,19.19126319885254,19.19126319885254,0.0,23.04617691040039,23.04617691040039,0.0,22.053314208984375,22.053314208984375,0.0,1.0,1.0,0.0,'2',0.6387135982513428,0.6387135982513428,0.0,1.0
Anger,stimuli/02f_an_o.bmp,stimuli/18F_AN_O.BMP,stimuli/02f_an_o.bmp,stimuli/EmptyFrame.bmp,stimuli/RedFrame.bmp,2,Anger,Female,3,1,1.0,23.070463180541992,23.070463180541992,0.0,27.061458587646484,27.061458587646484,0.0,26.071239471435547,26.071239471435547,0.0,1.0,1.0,0.0,'2',0.5831394791603088,0.5831394791603088,0.0,2.0
Anger,stimuli/20M_AN_O.BMP,stimuli/34M_AN_O.BMP,stimuli/20M_AN_O.BMP,stimuli/EmptyFrame.bmp,stimuli/RedFrame.bmp,2,Anger,Male,3,1,1.0,27.090917587280273,27.090917587280273,0.0,31.075557708740234,31.075557708740234,0.0,30.087263107299805,30.087263107299805,0.0,1.0,1.0,0.0,'2',0.925713300704956,0.925713300704956,0.0,3.0
Anger,stimuli/03F_AN_O.bmp,stimuli/03F_AN_O.bmp,stimuli/17F_AN_O.BMP,stimuli/EmptyFrame.bmp,stimuli/RedFrame.bmp,1,Anger,Female,3,1,1.0,31.10703468322754,31.10703468322754,0.0,35.094356536865234,35.094356536865234,0.0,34.11062240600586,34.11062240600586,0.0,1.0,1.0,0.0,'1',0.6370441913604736,0.6370441913604736,0.0,4.0
Anger,stimuli/21M_AN_O.BMP,stimuli/21M_AN_O.BMP,stimuli/33M_AN_O.BMP,stimuli/EmptyFrame.bmp,stimuli/RedFrame.bmp,1,Anger,Male,3,1,1.0,35.12419891357422,35.12419891357422,0.0,39.10636901855469,39.10636901855469,0.0,38.11920928955078,38.11920928955078,0.0,1.0,1.0,0.0,'1',0.7891451120376587,0.7891451120376587,0.0,5.0
Anger,stimuli/22M_AN_O.BMP,stimuli/32M_AN_O.BMP,stimuli/22M_AN_O.BMP,stimuli/EmptyFrame.bmp,stimuli/RedFrame.bmp,2,Anger,Male,3,1,1.0,39.131195068359375,39.131195068359375,0.0,43.12308120727539,43.12308120727539,0.0,42.13507080078125,42.13507080078125,0.0,1.0,1.0,0.0,'2',0.7396973967552185,0.7396973967552185,0.0,6.0
Anger,stimuli/23M_AN_O.BMP,stimuli/23M_AN_O.BMP,stimuli/31M_AN_O.BMP,stimuli/EmptyFrame.bmp,stimuli/RedFrame.bmp,1,Anger,Male,3,1,1.0,43.14564895629883,43.14564895629883,0.0,47.13344192504883,47.13344192504883,0.0,46.149253845214844,46.149253845214844,0.0,1.0,1.0,0.0,'1',1.0835715532302856,1.0835715532302856,0.0,7.0
Anger,stimuli/05F_AN_O.bmp,stimuli/05F_AN_O.bmp,stimuli/16F_AN_O.BMP,stimuli/EmptyFrame.bmp,stimuli/RedFrame.bmp,1,Anger,Female,3,1,1.0,47.15753173828125,47.15753173828125,0.0,51.153480529785156,51.153480529785156,0.0,50.16595458984375,50.16595458984375,0.0,1.0,1.0,0.0,'1',0.7074139714241028,0.7074139714241028,0.0,8.0
Anger,stimuli/06F_AN_O.bmp,stimuli/15F_AN_O.BMP,stimuli/06F_AN_O.bmp,stimuli/EmptyFrame.bmp,stimuli/RedFrame.bmp,2,Anger,Female,3,1,1.0,51.181087493896484,51.181087493896484,0.0,55.167171478271484,55.167171478271484,0.0,54.18446350097656,54.18446350097656,0.0,1.0,1.0,0.0,'2',0.6344882845878601,0.6344882845878601,0.0,9.0
Anger,stimuli/24M_AN_O.BMP,stimuli/24M_AN_O.BMP,stimuli/30M_AN_O.BMP,stimuli/EmptyFrame.bmp,stimuli/RedFrame.bmp,1,Anger,Male,3,1,1.0,55.19376754760742,55.19376754760742,0.0,59.18590545654297,59.18590545654297,0.0,58.195308685302734,58.195308685302734,0.0,1.0,1.0,0.0,'1',0.6579297184944153,0.6579297184944153,0.0,10.0
MatchShape,stimuli/MatchShapes.bmp,stimuli/EmptyFace.bmp,stimuli/EmptyFace.bmp,stimuli/EmptyFrame.bmp,stimuli/EmptyFrame.bmp,Null,None,None,3,1,1.0,59.210113525390625,59.210113525390625,0.0,63.19485855102539,63.19485855102539,0.0,62.201847076416016,62.201847076416016,0.0,0.0,0.0,0.0,,,,,11.0
Shape,stimuli/horizontal.bmp,stimuli/horizontal.bmp,stimuli/circle.bmp,stimuli/EmptyFrame.bmp,stimuli/RedFrame.bmp,1,Shape,None,3,1,1.0,63.224796295166016,63.224796295166016,0.0,67.20864868164062,67.20864868164062,0.0,66.21746826171875,66.21746826171875,0.0,1.0,1.0,0.0,'1',1.7042088508605957,1.7042088508605957,0.0,12.0
Shape,stimuli/vertical.bmp,stimuli/horizontal.bmp,stimuli/vertical.bmp,stimuli/EmptyFrame.bmp,stimuli/RedFrame.bmp,2,Shape,None,3,1,1.0,67.23062133789062,67.23062133789062,0.0,71.22056579589844,71.22056579589844,0.0,70.23180389404297,70.23180389404297,0.0,1.0,1.0,0.0,'2',0.7170156240463257,0.7170156240463257,0.0,13.0
Shape,stimuli/horizontal.bmp,stimuli/horizontal.bmp,stimuli/vertical.bmp,stimuli/EmptyFrame.bmp,stimuli/RedFrame.bmp,1,Shape,None,3,1,1.0,71.241943359375,71.241943359375,0.0,75.23855590820312,75.23855590820312,0.0,74.25183868408203,74.25183868408203,0.0,1.0,1.0,0.0,'1',0.7903023958206177,0.7903023958206177,0.0,14.0
Shape,stimuli/horizontal.bmp,stimuli/circle.bmp,stimuli/horizontal.bmp,stimuli/EmptyFrame.bmp,stimuli/RedFrame.bmp,2,Shape,None,3,1,1.0,75.26947784423828,75.26947784423828,0.0,79.25703430175781,79.25703430175781,0.0,78.26351928710938,78.26351928710938,0.0,1.0,1.0,0.0,'2',1.2234612703323364,1.2234612703323364,0.0,15.0
Shape,stimuli/circle.bmp,stimuli/circle.bmp,stimuli/vertical.bmp,stimuli/EmptyFrame.bmp,stimuli/RedFrame.bmp,1,Shape,None,3,1,1.0,79.27886199951172,79.27886199951172,0.0,83.2721939086914,83.2721939086914,0.0,82.27669525146484,82.27669525146484,0.0,1.0,1.0,0.0,'1',0.7638763785362244,0.7638763785362244,0.0,16.0
Shape,stimuli/circle.bmp,stimuli/circle.bmp,stimuli/horizontal.bmp,stimuli/EmptyFrame.bmp,stimuli/RedFrame.bmp,1,Shape,None,3,1,1.0,83.29259490966797,83.29259490966797,0.0,87.28923034667969,87.28923034667969,0.0,86.29722595214844,86.29722595214844,0.0,1.0,1.0,0.0,'1',0.5777996182441711,0.5777996182441711,0.0,17.0
Shape,stimuli/vertical.bmp,stimuli/circle.bmp,stimuli/vertical.bmp,stimuli/EmptyFrame.bmp,stimuli/RedFrame.bmp,2,Shape,None,3,1,1.0,87.31327056884766,87.31327056884766,0.0,91.30310821533203,91.30310821533203,0.0,90.31925201416016,90.31925201416016,0.0,1.0,1.0,0.0,'2',0.7251346111297607,0.7251346111297607,0.0,18.0
Shape,stimuli/circle.bmp,stimuli/vertical.bmp,stimuli/circle.bmp,stimuli/EmptyFrame.bmp,stimuli/RedFrame.bmp,2,Shape,None,3,1,1.0,91.32765197753906,91.32765197753906,0.0,95.32266998291016,95.32266998291016,0.0,94.33204650878906,94.33204650878906,0.0,1.0,1.0,0.0,'2',1.0925674438476562,1.0925674438476562,0.0,19.0
Shape,stimuli/vertical.bmp,stimuli/horizontal.bmp,stimuli/vertical.bmp,stimuli/EmptyFrame.bmp,stimuli/RedFrame.bmp,2,Shape,None,3,1,1.0,95.3451156616211,95.3451156616211,0.0,99.33759307861328,99.33759307861328,0.0,98.35501861572266,98.35501861572266,0.0,1.0,1.0,0.0,'2',1.9699538946151733,1.9699538946151733,0.0,20.0
Shape,stimuli/vertical.bmp,stimuli/vertical.bmp,stimuli/circle.bmp,stimuli/EmptyFrame.bmp,stimuli/RedFrame.bmp,1,Shape,None,3,1,1.0,99.36150360107422,99.36150360107422,0.0,103.3505859375,103.3505859375,0.0,102.36544799804688,102.36544799804688,0.0,1.0,1.0,0.0,'1',0.5835523009300232,0.5835523009300232,0.0,21.0
MatchFaces,stimuli/MatchFaces.bmp,stimuli/EmptyFace.bmp,stimuli/EmptyFace.bmp,stimuli/EmptyFrame.bmp,stimuli/EmptyFrame.bmp,Null,None,None,3,1,1.0,103.6183853149414,103.6183853149414,0.0,107.361572265625,107.361572265625,0.0,106.36743927001953,106.36743927001953,0.0,0.0,0.0,0.0,,,,,22.0
Neutral,stimuli/20M_NE_C.BMP,stimuli/21M_NE_C.BMP,stimuli/20M_NE_C.BMP,stimuli/EmptyFrame.bmp,stimuli/RedFrame.bmp,2,Neutral,Male,3,1,1.0,107.4375991821289,107.4375991821289,0.0,111.38621520996094,111.38621520996094,0.0,110.38280487060547,110.38280487060547,0.0,1.0,1.0,0.0,'2',1.0868314504623413,1.0868314504623413,0.0,23.0
Neutral,stimuli/01F_NE_C.bmp,stimuli/01F_NE_C.bmp,stimuli/02F_NE_C.bmp,stimuli/EmptyFrame.bmp,stimuli/RedFrame.bmp,1,Neutral,Female,3,1,1.0,111.41793060302734,111.41793060302734,0.0,115.39996337890625,115.39996337890625,0.0,114.41693878173828,114.41693878173828,0.0,1.0,1.0,0.0,'1',0.5852959752082825,0.5852959752082825,0.0,24.0
Neutral,stimuli/22M_NE_C.BMP,stimuli/23M_NE_C.BMP,stimuli/22M_NE_C.BMP,stimuli/EmptyFrame.bmp,stimuli/RedFrame.bmp,2,Neutral,Male,3,1,1.0,115.42726135253906,115.42726135253906,0.0,119.41500854492188,119.41500854492188,0.0,118.4252700805664,118.4252700805664,0.0,1.0,1.0,0.0,'2',0.6405504941940308,0.6405504941940308,0.0,25.0
Neutral,stimuli/24M_NE_C.BMP,stimuli/24M_NE_C.BMP,stimuli/25M_NE_C.BMP,stimuli/EmptyFrame.bmp,stimuli/RedFrame.bmp,1,Neutral,Male,3,1,1.0,119.43501281738281,119.43501281738281,0.0,123.42726135253906,123.42726135253906,0.0,122.44695281982422,122.44695281982422,0.0,1.0,1.0,0.0,'1',1.2450454235076904,1.2450454235076904,0.0,26.0
Neutral,stimuli/03F_NE_C.bmp,stimuli/05F_NE_C.bmp,stimuli/03F_NE_C.bmp,stimuli/EmptyFrame.bmp,stimuli/RedFrame.bmp,2,Neutral,Female,3,1,1.0,123.44773864746094,123.44773864746094,0.0,127.44483184814453,127.44483184814453,0.0,126.45256805419922,126.45256805419922,0.0,1.0,1.0,0.0,'2',1.0004644393920898,1.0004644393920898,0.0,27.0
Neutral,stimuli/26M_NE_C.BMP,stimuli/26M_NE_C.BMP,stimuli/27M_NE_C.BMP,stimuli/EmptyFrame.bmp,stimuli/RedFrame.bmp,1,Neutral,Male,3,1,1.0,127.4662094116211,127.4662094116211,0.0,131.4564208984375,131.4564208984375,0.0,130.46633911132812,130.46633911132812,0.0,1.0,1.0,0.0,'1',0.8346561789512634,0.8346561789512634,0.0,28.0
Neutral,stimuli/06F_NE_C.bmp,stimuli/07F_NE_C.BMP,stimuli/06F_NE_C.bmp,stimuli/EmptyFrame.bmp,stimuli/RedFrame.bmp,2,Neutral,Female,3,1,1.0,131.47784423828125,131.47784423828125,0.0,135.47186279296875,135.47186279296875,0.0,134.4807586669922,134.4807586669922,0.0,1.0,1.0,0.0,'2',0.5503585934638977,0.5503585934638977,0.0,29.0
Neutral,stimuli/08F_NE_C.BMP,stimuli/08F_NE_C.BMP,stimuli/09F_NE_C.BMP,stimuli/EmptyFrame.bmp,stimuli/RedFrame.bmp,1,Neutral,Female,3,1,1.0,135.494873046875,135.494873046875,0.0,139.4888916015625,139.4888916015625,0.0,138.50433349609375,138.50433349609375,0.0,1.0,1.0,0.0,'1',0.6561328768730164,0.6561328768730164,0.0,30.0
Neutral,stimuli/28M_NE_C.BMP,stimuli/29M_NE_C.BMP,stimuli/28M_NE_C.BMP,stimuli/EmptyFrame.bmp,stimuli/RedFrame.bmp,2,Neutral,Male,3,1,1.0,139.5161590576172,139.5161590576172,0.0,143.50027465820312,143.50027465820312,0.0,142.51904296875,142.51904296875,0.0,1.0,1.0,0.0,'2',0.6693497896194458,0.6693497896194458,0.0,31.0
Neutral,stimuli/10F_NE_C.BMP,stimuli/10F_NE_C.BMP,stimuli/06F_NE_C.bmp,stimuli/EmptyFrame.bmp,stimuli/RedFrame.bmp,1,Neutral,Female,3,1,1.0,143.52218627929688,143.52218627929688,0.0,147.5188751220703,147.5188751220703,0.0,146.52215576171875,146.52215576171875,0.0,1.0,1.0,0.0,'1',1.4590858221054077,1.4590858221054077,0.0,32.0
MatchFaces,stimuli/MatchFaces.bmp,stimuli/EmptyFace.bmp,stimuli/EmptyFace.bmp,stimuli/EmptyFrame.bmp,stimuli/EmptyFrame.bmp,Null,None,None,3,1,1.0,147.79063415527344,147.79063415527344,0.0,151.52825927734375,151.52825927734375,0.0,150.53460693359375,150.53460693359375,0.0,0.0,0.0,0.0,,,,,33.0
Fear,stimuli/07F_FE_O.BMP,stimuli/07F_FE_O.BMP,stimuli/14F_FE_O.BMP,stimuli/EmptyFrame.bmp,stimuli/RedFrame.bmp,1,Fear,Female,3,1,1.0,151.63134765625,151.63134765625,0.0,155.54249572753906,155.54249572753906,0.0,154.55943298339844,154.55943298339844,0.0,1.0,1.0,0.0,'1',0.6957165002822876,0.6957165002822876,0.0,34.0
Fear,stimuli/25M_FE_O.BMP,stimuli/29M_FE_O.BMP,stimuli/25M_FE_O.BMP,stimuli/EmptyFrame.bmp,stimuli/RedFrame.bmp,2,Fear,Male,3,1,1.0,155.56346130371094,155.56346130371094,0.0,159.5601806640625,159.5601806640625,0.0,158.57147216796875,158.57147216796875,0.0,1.0,1.0,0.0,'2',1.5454596281051636,1.5454596281051636,0.0,35.0
Fear,stimuli/26M_FE_O.BMP,stimuli/26M_FE_O.BMP,stimuli/28M_FE_O.BMP,stimuli/EmptyFrame.bmp,stimuli/RedFrame.bmp,1,Fear,Male,3,1,1.0,159.5875244140625,159.5875244140625,0.0,163.5714874267578,163.5714874267578,0.0,162.58619689941406,162.58619689941406,0.0,1.0,1.0,0.0,'1',0.6296226978302002,0.6296226978302002,0.0,36.0
Fear,stimuli/08F_FE_O.BMP,stimuli/13F_FE_O.BMP,stimuli/08F_FE_O.BMP,stimuli/EmptyFrame.bmp,stimuli/RedFrame.bmp,2,Fear,Female,3,1,1.0,163.5925750732422,163.5925750732422,0.0,167.5941925048828,167.5941925048828,0.0,166.59234619140625,166.59234619140625,0.0,1.0,1.0,0.0,'2',0.6017898917198181,0.6017898917198181,0.0,37.0
Fear,stimuli/09F_FE_O.BMP,stimuli/09F_FE_O.BMP,stimuli/12F_FE_O.BMP,stimuli/EmptyFrame.bmp,stimuli/RedFrame.bmp,1,Fear,Female,3,1,1.0,167.61691284179688,167.61691284179688,0.0,171.6197967529297,171.6197967529297,0.0,170.61729431152344,170.61729431152344,0.0,1.0,1.0,0.0,'1',0.4759441912174225,0.4759441912174225,0.0,38.0
Fear,stimuli/27M_FE_O.BMP,stimuli/26M_FE_O.BMP,stimuli/27M_FE_O.BMP,stimuli/EmptyFrame.bmp,stimuli/RedFrame.bmp,2,Fear,Male,3,1,1.0,171.64669799804688,171.64669799804688,0.0,175.63510131835938,175.63510131835938,0.0,174.64593505859375,174.64593505859375,0.0,1.0,1.0,0.0,'2',0.6062787175178528,0.6062787175178528,0.0,39.0
Fear,stimuli/28M_FE_O.BMP,stimuli/28M_FE_O.BMP,stimuli/25M_FE_O.BMP,stimuli/EmptyFrame.bmp,stimuli/RedFrame.bmp,1,Fear,Male,3,1,1.0,175.6631622314453,175.6631622314453,0.0,179.6444091796875,179.6444091796875,0.0,178.6634979248047,178.6634979248047,0.0,1.0,1.0,0.0,'1',1.6428372859954834,1.6428372859954834,0.0,40.0
Fear,stimuli/10F_FE_O.BMP,stimuli/11F_FE_O.BMP,stimuli/10F_FE_O.BMP,stimuli/EmptyFrame.bmp,stimuli/RedFrame.bmp,2,Fear,Female,3,1,1.0,179.67059326171875,179.67059326171875,0.0,183.6608123779297,183.6608123779297,0.0,182.670166015625,182.670166015625,0.0,1.0,1.0,0.0,'2',0.5806223750114441,0.5806223750114441,0.0,41.0
Fear,stimuli/29M_FE_O.BMP,stimuli/29M_FE_O.BMP,stimuli/24M_FE_O.BMP,stimuli/EmptyFrame.bmp,stimuli/RedFrame.bmp,1,Fear,Male,3,1,1.0,183.68203735351562,183.68203735351562,0.0,187.67161560058594,187.67161560058594,0.0,186.69137573242188,186.69137573242188,0.0,1.0,1.0,0.0,'1',0.7808064222335815,0.7808064222335815,0.0,42.0
Fear,stimuli/11F_FE_O.BMP,stimuli/10F_FE_O.BMP,stimuli/11F_FE_O.BMP,stimuli/EmptyFrame.bmp,stimuli/RedFrame.bmp,2,Fear,Female,3,1,1.0,187.69483947753906,187.69483947753906,0.0,191.6878204345703,191.6878204345703,0.0,190.70413208007812,190.70413208007812,0.0,1.0,1.0,0.0,'2',0.9498293995857239,0.9498293995857239,0.0,43.0
MatchFaces,stimuli/MatchFaces.bmp,stimuli/EmptyFace.bmp,stimuli/EmptyFace.bmp,stimuli/EmptyFrame.bmp,stimuli/EmptyFrame.bmp,Null,None,None,3,1,1.0,191.95587158203125,191.95587158203125,0.0,195.70176696777344,195.70176696777344,0.0,194.7110137939453,194.7110137939453,0.0,0.0,0.0,0.0,,,,,44.0
Happy,stimuli/19F_HA_O.BMP,stimuli/19F_HA_O.BMP,stimuli/18F_HA_O.BMP,stimuli/EmptyFrame.bmp,stimuli/RedFrame.bmp,1,Happy,Female,3,1,1.0,195.77603149414062,195.77603149414062,0.0,199.7192840576172,199.7192840576172,0.0,198.7285614013672,198.7285614013672,0.0,1.0,1.0,0.0,'1',0.6060464978218079,0.6060464978218079,0.0,45.0
Happy,stimuli/17F_HA_O.BMP,stimuli/16F_HA_O.BMP,stimuli/17F_HA_O.BMP,stimuli/EmptyFrame.bmp,stimuli/RedFrame.bmp,2,Happy,Female,3,1,1.0,199.7403564453125,199.7403564453125,0.0,203.73170471191406,203.73170471191406,0.0,202.7440643310547,202.7440643310547,0.0,1.0,1.0,0.0,'2',1.00834059715271,1.00834059715271,0.0,46.0
Happy,stimuli/43M_HA_O.BMP,stimuli/42M_HA_O.BMP,stimuli/43M_HA_O.BMP,stimuli/EmptyFrame.bmp,stimuli/RedFrame.bmp,2,Happy,Male,3,1,1.0,203.75399780273438,203.75399780273438,0.0,207.7490997314453,207.7490997314453,0.0,206.75701904296875,206.75701904296875,0.0,1.0,1.0,0.0,'2',0.5596050024032593,0.5596050024032593,0.0,47.0
Happy,stimuli/41M_HA_O.BMP,stimuli/41M_HA_O.BMP,stimuli/40M_HA_O.BMP,stimuli/EmptyFrame.bmp,stimuli/RedFrame.bmp,1,Happy,Male,3,1,1.0,207.7719268798828,207.7719268798828,0.0,211.7625732421875,211.7625732421875,0.0,210.7766876220703,210.7766876220703,0.0,1.0,1.0,0.0,'1',0.666400671005249,0.666400671005249,0.0,48.0
Happy,stimuli/15F_HA_O.BMP,stimuli/15F_HA_O.BMP,stimuli/14F_HA_O.BMP,stimuli/EmptyFrame.bmp,stimuli/RedFrame.bmp,1,Happy,Female,3,1,1.0,211.7864227294922,211.7864227294922,0.0,215.7832489013672,215.7832489013672,0.0,214.78640747070312,214.78640747070312,0.0,1.0,1.0,0.0,'1',1.1268117427825928,1.1268117427825928,0.0,49.0
Happy,stimuli/13F_HA_O.BMP,stimuli/13F_HA_O.BMP,stimuli/12F_HA_O.BMP,stimuli/EmptyFrame.bmp,stimuli/RedFrame.bmp,1,Happy,Female,3,1,1.0,215.8080291748047,215.8080291748047,0.0,219.79917907714844,219.79917907714844,0.0,218.8079833984375,218.8079833984375,0.0,1.0,1.0,0.0,'1',1.204264760017395,1.204264760017395,0.0,50.0
Happy,stimuli/39M_HA_O.BMP,stimuli/38M_HA_O.BMP,stimuli/39M_HA_O.BMP,stimuli/EmptyFrame.bmp,stimuli/RedFrame.bmp,2,Happy,Male,3,1,1.0,219.822021484375,219.822021484375,0.0,223.806640625,223.806640625,0.0,222.82435607910156,222.82435607910156,0.0,1.0,1.0,0.0,'2',1.0076792240142822,1.0076792240142822,0.0,51.0
Happy,stimuli/37M_HA_O.BMP,stimuli/37M_HA_O.BMP,stimuli/36M_HA_O.BMP,stimuli/EmptyFrame.bmp,stimuli/RedFrame.bmp,1,Happy,Male,3,1,1.0,223.83071899414062,223.83071899414062,0.0,227.82135009765625,227.82135009765625,0.0,226.8385467529297,226.8385467529297,0.0,1.0,1.0,0.0,'1',1.36911141872406,1.36911141872406,0.0,52.0
Happy,stimuli/35M_HA_O.BMP,stimuli/34M_HA_O.BMP,stimuli/35M_HA_O.BMP,stimuli/EmptyFrame.bmp,stimuli/RedFrame.bmp,2,Happy,Male,3,1,1.0,227.8443603515625,227.8443603515625,0.0,231.82911682128906,231.82911682128906,0.0,230.8346710205078,230.8346710205078,0.0,0.0,0.0,0.0,,,,,53.0
Happy,stimuli/11F_HA_O.BMP,stimuli/10F_HA_O.BMP,stimuli/11F_HA_O.BMP,stimuli/EmptyFrame.bmp,stimuli/RedFrame.bmp,2,Happy,Female,3,1,1.0,231.85403442382812,231.85403442382812,0.0,235.84518432617188,235.84518432617188,0.0,234.85525512695312,234.85525512695312,0.0,1.0,1.0,0.0,'2',0.7280051708221436,0.7280051708221436,0.0,54.0
Match Shape,stimuli/MatchShapes.bmp,stimuli/EmptyFace.bmp,stimuli/EmptyFace.bmp,stimuli/EmptyFrame.bmp,stimuli/EmptyFrame.bmp,Null,None,None,3,1,1.0,235.86785888671875,235.86785888671875,0.0,239.84686279296875,239.84686279296875,0.0,238.86477661132812,238.86477661132812,0.0,0.0,0.0,0.0,,,,,55.0
Shape,stimuli/circle.bmp,stimuli/vertical.bmp,stimuli/circle.bmp,stimuli/EmptyFrame.bmp,stimuli/RedFrame.bmp,2,Shape,None,3,1,1.0,239.87649536132812,239.87649536132812,0.0,243.85594177246094,243.85594177246094,0.0,242.87376403808594,242.87376403808594,0.0,1.0,1.0,0.0,'2',0.6920884847640991,0.6920884847640991,0.0,56.0
Shape,stimuli/horizontal.bmp,stimuli/circle.bmp,stimuli/horizontal.bmp,stimuli/EmptyFrame.bmp,stimuli/RedFrame.bmp,2,Shape,None,3,1,1.0,243.87835693359375,243.87835693359375,0.0,247.87075805664062,247.87075805664062,0.0,246.87881469726562,246.87881469726562,0.0,1.0,1.0,0.0,'2',0.7324243783950806,0.7324243783950806,0.0,57.0
Shape,stimuli/vertical.bmp,stimuli/vertical.bmp,stimuli/horizontal.bmp,stimuli/EmptyFrame.bmp,stimuli/RedFrame.bmp,1,Shape,None,3,1,1.0,247.89349365234375,247.89349365234375,0.0,251.8903350830078,251.8903350830078,0.0,250.89810180664062,250.89810180664062,0.0,1.0,1.0,0.0,'1',0.638857901096344,0.638857901096344,0.0,58.0
Shape,stimuli/horizontal.bmp,stimuli/circle.bmp,stimuli/horizontal.bmp,stimuli/EmptyFrame.bmp,stimuli/RedFrame.bmp,2,Shape,None,3,1,1.0,251.9091339111328,251.9091339111328,0.0,255.9097900390625,255.9097900390625,0.0,254.91481018066406,254.91481018066406,0.0,1.0,1.0,0.0,'2',0.5362548232078552,0.5362548232078552,0.0,59.0
Shape,stimuli/horizontal.bmp,stimuli/horizontal.bmp,stimuli/vertical.bmp,stimuli/EmptyFrame.bmp,stimuli/RedFrame.bmp,1,Shape,None,3,1,1.0,255.9307098388672,255.9307098388672,0.0,259.9277038574219,259.9277038574219,0.0,258.9359436035156,258.9359436035156,0.0,1.0,1.0,0.0,'1',0.8016892075538635,0.8016892075538635,0.0,60.0
Shape,stimuli/vertical.bmp,stimuli/vertical.bmp,stimuli/circle.bmp,stimuli/EmptyFrame.bmp,stimuli/RedFrame.bmp,1,Shape,None,3,1,1.0,259.94512939453125,259.94512939453125,0.0,263.9454040527344,263.9454040527344,0.0,262.9586486816406,262.9586486816406,0.0,1.0,1.0,0.0,'1',0.8200976252555847,0.8200976252555847,0.0,61.0
Shape,stimuli/circle.bmp,stimuli/horizontal.bmp,stimuli/circle.bmp,stimuli/EmptyFrame.bmp,stimuli/RedFrame.bmp,2,Shape,None,3,1,1.0,263.96466064453125,263.96466064453125,0.0,267.9578857421875,267.9578857421875,0.0,266.9668273925781,266.9668273925781,0.0,1.0,1.0,0.0,'2',0.9170882105827332,0.9170882105827332,0.0,62.0
Shape,stimuli/circle.bmp,stimuli/vertical.bmp,stimuli/circle.bmp,stimuli/EmptyFrame.bmp,stimuli/RedFrame.bmp,2,Shape,None,3,1,1.0,267.9772033691406,267.9772033691406,0.0,271.96917724609375,271.96917724609375,0.0,270.9848327636719,270.9848327636719,0.0,1.0,1.0,0.0,'2',0.5526369214057922,0.5526369214057922,0.0,63.0
Shape,stimuli/vertical.bmp,stimuli/vertical.bmp,stimuli/horizontal.bmp,stimuli/EmptyFrame.bmp,stimuli/RedFrame.bmp,1,Shape,None,3,1,1.0,271.990966796875,271.990966796875,0.0,275.9867248535156,275.9867248535156,0.0,274.9963073730469,274.9963073730469,0.0,1.0,1.0,0.0,'1',0.5740509033203125,0.5740509033203125,0.0,64.0
Shape,stimuli/horizontal.bmp,stimuli/horizontal.bmp,stimuli/circle.bmp,stimuli/EmptyFrame.bmp,stimuli/RedFrame.bmp,1,Shape,None,3,1,1.0,276.0091247558594,276.0091247558594,0.0,280.0013427734375,280.0013427734375,0.0,279.01080322265625,279.01080322265625,0.0,1.0,1.0,0.0,'1',0.6890528798103333,0.6890528798103333,0.0,65.0
MatchFaces,stimuli/MatchFaces.bmp,stimuli/EmptyFace.bmp,stimuli/EmptyFace.bmp,stimuli/EmptyFrame.bmp,stimuli/EmptyFrame.bmp,Null,None,None,3,1,1.0,280.2158508300781,280.2158508300781,0.0,284.0122985839844,284.0122985839844,0.0,283.017578125,283.017578125,0.0,0.0,0.0,0.0,,,,,66.0
Anger,stimuli/42M_AN_O.BMP,stimuli/42M_AN_O.BMP,stimuli/43M_AN_O.BMP,stimuli/EmptyFrame.bmp,stimuli/RedFrame.bmp,1,Anger,Male,3,1,1.0,284.1108703613281,284.1108703613281,0.0,288.028564453125,288.028564453125,0.0,287.0338439941406,287.0338439941406,0.0,1.0,1.0,0.0,'1',0.5876740217208862,0.5876740217208862,0.0,67.0
Anger,stimuli/07F_AN_O.BMP,stimuli/07F_AN_O.BMP,stimuli/14F_AN_O.BMP,stimuli/EmptyFrame.bmp,stimuli/RedFrame.bmp,1,Anger,Female,3,1,1.0,288.05438232421875,288.05438232421875,0.0,292.04022216796875,292.04022216796875,0.0,291.0694885253906,291.0694885253906,0.0,1.0,1.0,0.0,'1',0.6780965924263,0.6780965924263,0.0,68.0
Anger,stimuli/40M_AN_O.BMP,stimuli/41M_AN_O.BMP,stimuli/40M_AN_O.BMP,stimuli/EmptyFrame.bmp,stimuli/RedFrame.bmp,2,Anger,Male,3,1,1.0,292.0639343261719,292.0639343261719,0.0,296.0508117675781,296.0508117675781,0.0,295.0633850097656,295.0633850097656,0.0,1.0,1.0,0.0,'2',0.5358577966690063,0.5358577966690063,0.0,69.0
Anger,stimuli/38M_AN_O.BMP,stimuli/39M_AN_O.BMP,stimuli/38M_AN_O.BMP,stimuli/EmptyFrame.bmp,stimuli/RedFrame.bmp,2,Anger,Male,3,1,1.0,296.0719909667969,296.0719909667969,0.0,300.0681457519531,300.0681457519531,0.0,299.0735778808594,299.0735778808594,0.0,1.0,1.0,0.0,'2',1.5085262060165405,1.5085262060165405,0.0,70.0
Anger,stimuli/08F_AN_O.BMP,stimuli/08F_AN_O.BMP,stimuli/13F_AN_O.BMP,stimuli/EmptyFrame.bmp,stimuli/RedFrame.bmp,1,Anger,Female,3,1,1.0,300.090087890625,300.090087890625,0.0,304.0880126953125,304.0880126953125,0.0,303.0982360839844,303.0982360839844,0.0,1.0,1.0,0.0,'1',0.6882671117782593,0.6882671117782593,0.0,71.0
Anger,stimuli/36M_AN_O.BMP,stimuli/37M_AN_O.BMP,stimuli/36M_AN_O.BMP,stimuli/EmptyFrame.bmp,stimuli/RedFrame.bmp,2,Anger,Male,3,1,1.0,304.10980224609375,304.10980224609375,0.0,308.10516357421875,308.10516357421875,0.0,307.1147766113281,307.1147766113281,0.0,1.0,1.0,0.0,'2',1.02701735496521,1.02701735496521,0.0,72.0
Anger,stimuli/09F_AN_O.BMP,stimuli/12F_AN_O.BMP,stimuli/09F_AN_O.BMP,stimuli/EmptyFrame.bmp,stimuli/RedFrame.bmp,2,Anger,Female,3,1,1.0,308.1282958984375,308.1282958984375,0.0,312.1220703125,312.1220703125,0.0,311.1295471191406,311.1295471191406,0.0,1.0,1.0,0.0,'2',0.5597534775733948,0.5597534775733948,0.0,73.0
Anger,stimuli/34M_AN_O.BMP,stimuli/35M_AN_O.BMP,stimuli/34M_AN_O.BMP,stimuli/EmptyFrame.bmp,stimuli/RedFrame.bmp,2,Anger,Male,3,1,1.0,312.144775390625,312.144775390625,0.0,316.1356201171875,316.1356201171875,0.0,315.1433410644531,315.1433410644531,0.0,1.0,1.0,0.0,'2',1.779733419418335,1.779733419418335,0.0,74.0
Anger,stimuli/10F_AN_O.BMP,stimuli/10F_AN_O.BMP,stimuli/11F_AN_O.BMP,stimuli/EmptyFrame.bmp,stimuli/RedFrame.bmp,1,Anger,Female,3,1,1.0,316.15869140625,316.15869140625,0.0,320.1476135253906,320.1476135253906,0.0,319.1688537597656,319.1688537597656,0.0,1.0,1.0,0.0,'1',0.6080394983291626,0.6080394983291626,0.0,75.0
Anger,stimuli/12F_AN_O.BMP,stimuli/12F_AN_O.BMP,stimuli/13F_AN_O.BMP,stimuli/EmptyFrame.bmp,stimuli/RedFrame.bmp,1,Anger,Female,3,1,1.0,320.1722717285156,320.1722717285156,0.0,324.1700134277344,324.1700134277344,0.0,323.1751403808594,323.1751403808594,0.0,1.0,1.0,0.0,'1',0.7234681844711304,0.7234681844711304,0.0,76.0
MatchFaces,stimuli/MatchFaces.bmp,stimuli/EmptyFace.bmp,stimuli/EmptyFace.bmp,stimuli/EmptyFrame.bmp,stimuli/EmptyFrame.bmp,Null,None,None,3,1,1.0,324.3659973144531,324.3659973144531,0.0,328.1788635253906,328.1788635253906,0.0,327.1822814941406,327.1822814941406,0.0,0.0,0.0,0.0,,,,,77.0
Happy,stimuli/20M_HA_O.BMP,stimuli/21M_HA_O.BMP,stimuli/20M_HA_O.BMP,stimuli/EmptyFrame.bmp,stimuli/RedFrame.bmp,2,Happy,Male,3,1,1.0,328.2550354003906,328.2550354003906,0.0,332.1890563964844,332.1890563964844,0.0,331.2127685546875,331.2127685546875,0.0,1.0,1.0,0.0,'2',1.9092024564743042,1.9092024564743042,0.0,78.0
Happy,stimuli/01F_HA_O.bmp,stimuli/01F_HA_O.bmp,stimuli/02F_HA_O.bmp,stimuli/EmptyFrame.bmp,stimuli/RedFrame.bmp,1,Happy,Female,3,1,1.0,332.2171630859375,332.2171630859375,0.0,336.2110595703125,336.2110595703125,0.0,335.208740234375,335.208740234375,0.0,1.0,1.0,0.0,'1',0.5971899032592773,0.5971899032592773,0.0,79.0
Happy,stimuli/22M_HA_O.BMP,stimuli/23M_HA_O.BMP,stimuli/22M_HA_O.BMP,stimuli/EmptyFrame.bmp,stimuli/RedFrame.bmp,2,Happy,Male,3,1,1.0,336.2342529296875,336.2342529296875,0.0,340.22930908203125,340.22930908203125,0.0,339.24542236328125,339.24542236328125,0.0,1.0,1.0,0.0,'2',0.615171492099762,0.615171492099762,0.0,80.0
Happy,stimuli/24M_HA_O.BMP,stimuli/24M_HA_O.BMP,stimuli/25M_HA_O.BMP,stimuli/EmptyFrame.bmp,stimuli/RedFrame.bmp,1,Happy,Male,3,1,1.0,340.2519226074219,340.2519226074219,0.0,344.2403869628906,344.2403869628906,0.0,343.25714111328125,343.25714111328125,0.0,1.0,1.0,0.0,'1',1.344320297241211,1.344320297241211,0.0,81.0
Happy,stimuli/03F_HA_O.bmp,stimuli/05F_HA_O.bmp,stimuli/03F_HA_O.bmp,stimuli/EmptyFrame.bmp,stimuli/RedFrame.bmp,2,Happy,Female,3,1,1.0,344.2627868652344,344.2627868652344,0.0,348.260498046875,348.260498046875,0.0,347.2673645019531,347.2673645019531,0.0,1.0,1.0,0.0,'2',0.6621903777122498,0.6621903777122498,0.0,82.0
Happy,stimuli/26M_HA_O.BMP,stimuli/26M_HA_O.BMP,stimuli/27M_HA_O.BMP,stimuli/EmptyFrame.bmp,stimuli/RedFrame.bmp,1,Happy,Male,3,1,1.0,348.2850341796875,348.2850341796875,0.0,352.275390625,352.275390625,0.0,351.28662109375,351.28662109375,0.0,1.0,1.0,0.0,'1',0.7940685749053955,0.7940685749053955,0.0,83.0
Happy,stimuli/06F_HA_O.bmp,stimuli/07F_HA_O.BMP,stimuli/06F_HA_O.bmp,stimuli/EmptyFrame.bmp,stimuli/RedFrame.bmp,2,Happy,Female,3,1,1.0,352.2963562011719,352.2963562011719,0.0,356.28729248046875,356.28729248046875,0.0,355.2959289550781,355.2959289550781,0.0,1.0,1.0,0.0,'2',0.8868873119354248,0.8868873119354248,0.0,84.0
Happy,stimuli/08F_HA_O.BMP,stimuli/08F_HA_O.BMP,stimuli/09F_HA_O.BMP,stimuli/EmptyFrame.bmp,stimuli/RedFrame.bmp,1,Happy,Female,3,1,1.0,356.3103332519531,356.3103332519531,0.0,360.2984313964844,360.2984313964844,0.0,359.31427001953125,359.31427001953125,0.0,1.0,1.0,0.0,'1',1.405118703842163,1.405118703842163,0.0,85.0
Happy,stimuli/28M_HA_O.BMP,stimuli/29M_HA_O.BMP,stimuli/28M_HA_O.BMP,stimuli/EmptyFrame.bmp,stimuli/RedFrame.bmp,2,Happy,Male,3,1,1.0,360.32244873046875,360.32244873046875,0.0,364.30987548828125,364.30987548828125,0.0,363.32489013671875,363.32489013671875,0.0,1.0,1.0,0.0,'2',0.8908646702766418,0.8908646702766418,0.0,86.0
Happy,stimuli/10F_HA_O.BMP,stimuli/10F_HA_O.BMP,stimuli/06F_HA_O.bmp,stimuli/EmptyFrame.bmp,stimuli/RedFrame.bmp,1,Happy,Female,3,1,1.0,364.3294372558594,364.3294372558594,0.0,368.3182678222656,368.3182678222656,0.0,367.33489990234375,367.33489990234375,0.0,1.0,1.0,0.0,'1',1.1547280550003052,1.1547280550003052,0.0,87.0
MatchFaces,stimuli/MatchFaces.bmp,stimuli/EmptyFace.bmp,stimuli/EmptyFace.bmp,stimuli/EmptyFrame.bmp,stimuli/EmptyFrame.bmp,Null,None,None,3,1,1.0,368.55126953125,368.55126953125,0.0,372.3242492675781,372.3242492675781,0.0,371.3295593261719,371.3295593261719,0.0,0.0,0.0,0.0,,,,,88.0
Neutral,stimuli/07F_NE_C.BMP,stimuli/07F_NE_C.BMP,stimuli/14F_NE_C.BMP,stimuli/EmptyFrame.bmp,stimuli/RedFrame.bmp,1,Neutral,Female,3,1,1.0,372.3914489746094,372.3914489746094,0.0,376.3305969238281,376.3305969238281,0.0,375.3371276855469,375.3371276855469,0.0,0.0,0.0,0.0,,,,,89.0
Neutral,stimuli/25M_NE_C.BMP,stimuli/29M_NE_C.BMP,stimuli/25M_NE_C.BMP,stimuli/EmptyFrame.bmp,stimuli/RedFrame.bmp,2,Neutral,Male,3,1,1.0,376.3556823730469,376.3556823730469,0.0,380.3469543457031,380.3469543457031,0.0,379.3602294921875,379.3602294921875,0.0,1.0,1.0,0.0,'2',0.7144641280174255,0.7144641280174255,0.0,90.0
Neutral,stimuli/26M_NE_C.BMP,stimuli/26M_NE_C.BMP,stimuli/28M_NE_C.BMP,stimuli/EmptyFrame.bmp,stimuli/RedFrame.bmp,1,Neutral,Male,3,1,1.0,380.36932373046875,380.36932373046875,0.0,384.3602294921875,384.3602294921875,0.0,383.3709716796875,383.3709716796875,0.0,1.0,1.0,0.0,'1',0.5794501900672913,0.5794501900672913,0.0,91.0
Neutral,stimuli/08F_NE_C.BMP,stimuli/13F_NE_C.BMP,stimuli/08F_NE_C.BMP,stimuli/EmptyFrame.bmp,stimuli/RedFrame.bmp,2,Neutral,Female,3,1,1.0,384.3800354003906,384.3800354003906,0.0,388.3775939941406,388.3775939941406,0.0,387.4073791503906,387.4073791503906,0.0,1.0,1.0,0.0,'2',0.5690013766288757,0.5690013766288757,0.0,92.0
Neutral,stimuli/09F_NE_C.BMP,stimuli/09F_NE_C.BMP,stimuli/12F_NE_C.BMP,stimuli/EmptyFrame.bmp,stimuli/RedFrame.bmp,1,Neutral,Female,3,1,1.0,388.4103698730469,388.4103698730469,0.0,392.3922119140625,392.3922119140625,0.0,391.4104919433594,391.4104919433594,0.0,1.0,1.0,0.0,'1',0.6143022775650024,0.6143022775650024,0.0,93.0
Neutral,stimuli/27M_NE_C.BMP,stimuli/26M_NE_C.BMP,stimuli/27M_NE_C.BMP,stimuli/EmptyFrame.bmp,stimuli/RedFrame.bmp,2,Neutral,Male,3,1,1.0,392.4156188964844,392.4156188964844,0.0,396.40545654296875,396.40545654296875,0.0,395.4161682128906,395.4161682128906,0.0,1.0,1.0,0.0,'2',0.7510539293289185,0.7510539293289185,0.0,94.0
Neutral,stimuli/28M_NE_C.BMP,stimuli/28M_NE_C.BMP,stimuli/25M_NE_C.BMP,stimuli/EmptyFrame.bmp,stimuli/RedFrame.bmp,1,Neutral,Male,3,1,1.0,396.4250183105469,396.4250183105469,0.0,400.4234619140625,400.4234619140625,0.0,399.4381103515625,399.4381103515625,0.0,1.0,1.0,0.0,'1',0.6945534944534302,0.6945534944534302,0.0,95.0
Neutral,stimuli/10F_NE_C.BMP,stimuli/11F_NE_C.BMP,stimuli/10F_NE_C.BMP,stimuli/EmptyFrame.bmp,stimuli/RedFrame.bmp,2,Neutral,Female,3,1,1.0,400.4463195800781,400.4463195800781,0.0,404.440673828125,404.440673828125,0.0,403.4476318359375,403.4476318359375,0.0,1.0,1.0,0.0,'2',0.47720739245414734,0.47720739245414734,0.0,96.0
Neutral,stimuli/29M_NE_C.BMP,stimuli/29M_NE_C.BMP,stimuli/24M_NE_C.BMP,stimuli/EmptyFrame.bmp,stimuli/RedFrame.bmp,1,Neutral,Male,3,1,1.0,404.46160888671875,404.46160888671875,0.0,408.4595642089844,408.4595642089844,0.0,407.4648742675781,407.4648742675781,0.0,1.0,1.0,0.0,'1',0.9401503205299377,0.9401503205299377,0.0,97.0
Neutral,stimuli/11F_NE_C.BMP,stimuli/10F_NE_C.BMP,stimuli/11F_NE_C.BMP,stimuli/EmptyFrame.bmp,stimuli/RedFrame.bmp,2,Neutral,Female,3,1,1.0,408.4833068847656,408.4833068847656,0.0,412.4767150878906,412.4767150878906,0.0,411.4825744628906,411.4825744628906,0.0,1.0,1.0,0.0,'2',1.1117278337478638,1.1117278337478638,0.0,98.0
MatchFaces,stimuli/MatchFaces.bmp,stimuli/EmptyFace.bmp,stimuli/EmptyFace.bmp,stimuli/EmptyFrame.bmp,stimuli/EmptyFrame.bmp,Null,None,None,3,1,1.0,412.7675476074219,412.7675476074219,0.0,416.4790344238281,416.4790344238281,0.0,415.4844665527344,415.4844665527344,0.0,0.0,0.0,0.0,,,,,99.0
Fear,stimuli/23M_FE_O.BMP,stimuli/23M_FE_O.BMP,stimuli/24M_FE_O.BMP,stimuli/EmptyFrame.bmp,stimuli/RedFrame.bmp,1,Fear,Male,3,1,1.0,416.57354736328125,416.57354736328125,0.0,420.4964599609375,420.4964599609375,0.0,419.5008544921875,419.5008544921875,0.0,1.0,1.0,0.0,'1',0.7175958156585693,0.7175958156585693,0.0,100.0
Fear,stimuli/19F_FE_O.BMP,stimuli/18F_FE_O.BMP,stimuli/19F_FE_O.BMP,stimuli/EmptyFrame.bmp,stimuli/RedFrame.bmp,2,Fear,Female,3,1,1.0,420.5190124511719,420.5190124511719,0.0,424.5201416015625,424.5201416015625,0.0,423.5190124511719,423.5190124511719,0.0,1.0,1.0,0.0,'2',1.2077478170394897,1.2077478170394897,0.0,101.0
Fear,stimuli/17F_FE_O.BMP,stimuli/17F_FE_O.BMP,stimuli/16F_FE_O.BMP,stimuli/EmptyFrame.bmp,stimuli/RedFrame.bmp,1,Fear,Female,3,1,1.0,424.54583740234375,424.54583740234375,0.0,428.53997802734375,428.53997802734375,0.0,427.541748046875,427.541748046875,0.0,0.0,0.0,0.0,'2',2.362180471420288,2.362180471420288,0.0,102.0
Fear,stimuli/15F_FE_O.BMP,stimuli/18F_FE_O.BMP,stimuli/15F_FE_O.BMP,stimuli/EmptyFrame.bmp,stimuli/RedFrame.bmp,2,Fear,Female,3,1,1.0,428.5624694824219,428.5624694824219,0.0,432.5592346191406,432.5592346191406,0.0,431.5631408691406,431.5631408691406,0.0,1.0,1.0,0.0,'2',0.7216066718101501,0.7216066718101501,0.0,103.0
Fear,stimuli/21M_FE_O.BMP,stimuli/21M_FE_O.BMP,stimuli/22M_FE_O.BMP,stimuli/EmptyFrame.bmp,stimuli/RedFrame.bmp,1,Fear,Male,3,1,1.0,432.57989501953125,432.57989501953125,0.0,436.5701599121094,436.5701599121094,0.0,435.5817565917969,435.5817565917969,0.0,1.0,1.0,0.0,'1',0.6435295939445496,0.6435295939445496,0.0,104.0
Fear,stimuli/29M_FE_O.BMP,stimuli/30M_FE_O.BMP,stimuli/29M_FE_O.BMP,stimuli/EmptyFrame.bmp,stimuli/RedFrame.bmp,2,Fear,Male,3,1,1.0,436.5923156738281,436.5923156738281,0.0,440.58660888671875,440.58660888671875,0.0,439.5992126464844,439.5992126464844,0.0,1.0,1.0,0.0,'2',0.7267181277275085,0.7267181277275085,0.0,105.0
Fear,stimuli/31M_FE_O.BMP,stimuli/31M_FE_O.BMP,stimuli/38M_FE_O.BMP,stimuli/EmptyFrame.bmp,stimuli/RedFrame.bmp,1,Fear,Male,3,1,1.0,440.6115417480469,440.6115417480469,0.0,444.5994873046875,444.5994873046875,0.0,443.6184997558594,443.6184997558594,0.0,1.0,1.0,0.0,'1',0.5684798955917358,0.5684798955917358,0.0,106.0
Fear,stimuli/09F_FE_O.BMP,stimuli/07F_FE_O.BMP,stimuli/09F_FE_O.BMP,stimuli/EmptyFrame.bmp,stimuli/RedFrame.bmp,2,Fear,Female,3,1,1.0,444.6226501464844,444.6226501464844,0.0,448.6150207519531,448.6150207519531,0.0,447.6258239746094,447.6258239746094,0.0,1.0,1.0,0.0,'2',0.6556357741355896,0.6556357741355896,0.0,107.0
Fear,stimuli/11F_FE_O.BMP,stimuli/12F_FE_O.BMP,stimuli/11F_FE_O.BMP,stimuli/EmptyFrame.bmp,stimuli/RedFrame.bmp,2,Fear,Female,3,1,1.0,448.63671875,448.63671875,0.0,452.6367492675781,452.6367492675781,0.0,451.6475524902344,451.6475524902344,0.0,1.0,1.0,0.0,'2',0.8064337968826294,0.8064337968826294,0.0,108.0
Fear,stimuli/34M_FE_O.BMP,stimuli/34M_FE_O.BMP,stimuli/33M_FE_O.BMP,stimuli/EmptyFrame.bmp,stimuli/RedFrame.bmp,1,Fear,Male,3,1,1.0,452.6592712402344,452.6592712402344,0.0,456.6527099609375,456.6527099609375,0.0,455.66827392578125,455.66827392578125,0.0,1.0,1.0,0.0,'1',1.0049941539764404,1.0049941539764404,0.0,109.0

extraInfo
participant,sub016
session,001
date,2025_Jun_27_0919
expName,HaririTask_Ver1
psychopyVersion,3.0.1
frameRate,None
