TrialType,Top,Left,Right,EmptyFrame,SelectedFrame,Correct,Emotion,Gender,TrialLength,FixationLength,n,GCFaceStartTime_mean,GCFaceStartTime_raw,GCFaceStartTime_std,GCPostFaceFixationEndTime_mean,GCPostFaceFixationEndTime_raw,GCPostFaceFixationEndTime_std,GCPostFaceFixationStartTime_mean,GCPostFaceFixationStartTime_raw,GCPostFaceFixationStartTime_std,key_resp_trial.corr_mean,key_resp_trial.corr_raw,key_resp_trial.corr_std,key_resp_trial.keys_raw,key_resp_trial.rt_mean,key_resp_trial.rt_raw,key_resp_trial.rt_std,order
MatchFaces,stimuli/MatchFaces.bmp,stimuli/EmptyFace.bmp,stimuli/EmptyFace.bmp,stimuli/EmptyFrame.bmp,stimuli/EmptyFrame.bmp,Null,None,None,3,1,1.0,15.385736465454102,15.385736465454102,0.0,19.060455322265625,19.060455322265625,0.0,18.06511116027832,18.06511116027832,0.0,0.0,0.0,0.0,,,,,0.0
Fear,stimuli/23M_FE_O.BMP,stimuli/23M_FE_O.BMP,stimuli/24M_FE_O.BMP,stimuli/EmptyFrame.bmp,stimuli/RedFrame.bmp,1,Fear,Male,3,1,1.0,19.30889129638672,19.30889129638672,0.0,23.08515739440918,23.08515739440918,0.0,22.103174209594727,22.103174209594727,0.0,1.0,1.0,0.0,'1',1.051969051361084,1.051969051361084,0.0,1.0
Fear,stimuli/19F_FE_O.BMP,stimuli/18F_FE_O.BMP,stimuli/19F_FE_O.BMP,stimuli/EmptyFrame.bmp,stimuli/RedFrame.bmp,2,Fear,Female,3,1,1.0,23.108896255493164,23.108896255493164,0.0,27.10317611694336,27.10317611694336,0.0,26.120136260986328,26.120136260986328,0.0,1.0,1.0,0.0,'2',0.9644544720649719,0.9644544720649719,0.0,2.0
Fear,stimuli/17F_FE_O.BMP,stimuli/17F_FE_O.BMP,stimuli/16F_FE_O.BMP,stimuli/EmptyFrame.bmp,stimuli/RedFrame.bmp,1,Fear,Female,3,1,1.0,27.129728317260742,27.129728317260742,0.0,31.12123680114746,31.12123680114746,0.0,30.15143585205078,30.15143585205078,0.0,1.0,1.0,0.0,'1',1.0010712146759033,1.0010712146759033,0.0,3.0
Fear,stimuli/21M_FE_O.BMP,stimuli/21M_FE_O.BMP,stimuli/22M_FE_O.BMP,stimuli/EmptyFrame.bmp,stimuli/RedFrame.bmp,1,Fear,Male,3,1,1.0,31.156455993652344,31.156455993652344,0.0,35.16020965576172,35.16020965576172,0.0,34.15083312988281,34.15083312988281,0.0,1.0,1.0,0.0,'1',1.0901426076889038,1.0901426076889038,0.0,4.0
Fear,stimuli/09F_FE_O.BMP,stimuli/07F_FE_O.BMP,stimuli/09F_FE_O.BMP,stimuli/EmptyFrame.bmp,stimuli/RedFrame.bmp,2,Fear,Female,3,1,1.0,35.19643020629883,35.19643020629883,0.0,39.1993408203125,39.1993408203125,0.0,38.21485137939453,38.21485137939453,0.0,1.0,1.0,0.0,'2',1.1802078485488892,1.1802078485488892,0.0,5.0
Fear,stimuli/08F_FE_O.BMP,stimuli/13F_FE_O.BMP,stimuli/08F_FE_O.BMP,stimuli/EmptyFrame.bmp,stimuli/RedFrame.bmp,2,Fear,Female,3,1,1.0,39.23629379272461,39.23629379272461,0.0,43.220088958740234,43.220088958740234,0.0,42.24274444580078,42.24274444580078,0.0,1.0,1.0,0.0,'2',0.9338772296905518,0.9338772296905518,0.0,6.0
Fear,stimuli/07F_FE_O.BMP,stimuli/07F_FE_O.BMP,stimuli/14F_FE_O.BMP,stimuli/EmptyFrame.bmp,stimuli/RedFrame.bmp,1,Fear,Female,3,1,1.0,43.251304626464844,43.251304626464844,0.0,47.23397445678711,47.23397445678711,0.0,46.24893569946289,46.24893569946289,0.0,1.0,1.0,0.0,'1',0.9889109134674072,0.9889109134674072,0.0,7.0
Fear,stimuli/26M_FE_O.BMP,stimuli/26M_FE_O.BMP,stimuli/28M_FE_O.BMP,stimuli/EmptyFrame.bmp,stimuli/RedFrame.bmp,1,Fear,Male,3,1,1.0,47.261260986328125,47.261260986328125,0.0,51.25390625,51.25390625,0.0,50.26718521118164,50.26718521118164,0.0,1.0,1.0,0.0,'1',1.0113433599472046,1.0113433599472046,0.0,8.0
Fear,stimuli/10F_FE_O.BMP,stimuli/11F_FE_O.BMP,stimuli/10F_FE_O.BMP,stimuli/EmptyFrame.bmp,stimuli/RedFrame.bmp,2,Fear,Female,3,1,1.0,51.28229522705078,51.28229522705078,0.0,55.269840240478516,55.269840240478516,0.0,54.300533294677734,54.300533294677734,0.0,1.0,1.0,0.0,'2',0.7973031997680664,0.7973031997680664,0.0,9.0
Fear,stimuli/29M_FE_O.BMP,stimuli/30M_FE_O.BMP,stimuli/29M_FE_O.BMP,stimuli/EmptyFrame.bmp,stimuli/RedFrame.bmp,2,Fear,Male,3,1,1.0,55.300174713134766,55.300174713134766,0.0,59.2841911315918,59.2841911315918,0.0,58.303802490234375,58.303802490234375,0.0,1.0,1.0,0.0,'2',0.9016394019126892,0.9016394019126892,0.0,10.0
MatchFaces,stimuli/MatchFaces.bmp,stimuli/EmptyFace.bmp,stimuli/EmptyFace.bmp,stimuli/EmptyFrame.bmp,stimuli/EmptyFrame.bmp,Null,None,None,3,1,1.0,59.54962158203125,59.54962158203125,0.0,63.29103088378906,63.29103088378906,0.0,62.29640197753906,62.29640197753906,0.0,0.0,0.0,0.0,,,,,11.0
Neutral,stimuli/07F_NE_C.BMP,stimuli/07F_NE_C.BMP,stimuli/14F_NE_C.BMP,stimuli/EmptyFrame.bmp,stimuli/RedFrame.bmp,1,Neutral,Female,3,1,1.0,63.391876220703125,63.391876220703125,0.0,67.30217742919922,67.30217742919922,0.0,66.3350601196289,66.3350601196289,0.0,1.0,1.0,0.0,'1',1.0990482568740845,1.0990482568740845,0.0,12.0
Neutral,stimuli/25M_NE_C.BMP,stimuli/29M_NE_C.BMP,stimuli/25M_NE_C.BMP,stimuli/EmptyFrame.bmp,stimuli/RedFrame.bmp,2,Neutral,Male,3,1,1.0,67.3320541381836,67.3320541381836,0.0,71.31763458251953,71.31763458251953,0.0,70.33340454101562,70.33340454101562,0.0,1.0,1.0,0.0,'2',0.8569778203964233,0.8569778203964233,0.0,13.0
Neutral,stimuli/26M_NE_C.BMP,stimuli/26M_NE_C.BMP,stimuli/28M_NE_C.BMP,stimuli/EmptyFrame.bmp,stimuli/RedFrame.bmp,1,Neutral,Male,3,1,1.0,71.34883117675781,71.34883117675781,0.0,75.34246826171875,75.34246826171875,0.0,74.35237884521484,74.35237884521484,0.0,1.0,1.0,0.0,'1',0.84534752368927,0.84534752368927,0.0,14.0
Neutral,stimuli/08F_NE_C.BMP,stimuli/13F_NE_C.BMP,stimuli/08F_NE_C.BMP,stimuli/EmptyFrame.bmp,stimuli/RedFrame.bmp,2,Neutral,Female,3,1,1.0,75.37149047851562,75.37149047851562,0.0,79.36361694335938,79.36361694335938,0.0,78.3688735961914,78.3688735961914,0.0,1.0,1.0,0.0,'2',0.6574512720108032,0.6574512720108032,0.0,15.0
Neutral,stimuli/09F_NE_C.BMP,stimuli/09F_NE_C.BMP,stimuli/12F_NE_C.BMP,stimuli/EmptyFrame.bmp,stimuli/RedFrame.bmp,1,Neutral,Female,3,1,1.0,79.39777374267578,79.39777374267578,0.0,83.38575744628906,83.38575744628906,0.0,82.39977264404297,82.39977264404297,0.0,1.0,1.0,0.0,'1',0.6433854103088379,0.6433854103088379,0.0,16.0
Neutral,stimuli/27M_NE_C.BMP,stimuli/26M_NE_C.BMP,stimuli/27M_NE_C.BMP,stimuli/EmptyFrame.bmp,stimuli/RedFrame.bmp,2,Neutral,Male,3,1,1.0,83.4109878540039,83.4109878540039,0.0,87.40436553955078,87.40436553955078,0.0,86.41764068603516,86.41764068603516,0.0,1.0,1.0,0.0,'2',0.8565735816955566,0.8565735816955566,0.0,17.0
Neutral,stimuli/28M_NE_C.BMP,stimuli/28M_NE_C.BMP,stimuli/25M_NE_C.BMP,stimuli/EmptyFrame.bmp,stimuli/RedFrame.bmp,1,Neutral,Male,3,1,1.0,87.42900848388672,87.42900848388672,0.0,91.41441345214844,91.41441345214844,0.0,90.43194580078125,90.43194580078125,0.0,1.0,1.0,0.0,'1',0.9480018019676208,0.9480018019676208,0.0,18.0
Neutral,stimuli/10F_NE_C.BMP,stimuli/11F_NE_C.BMP,stimuli/10F_NE_C.BMP,stimuli/EmptyFrame.bmp,stimuli/RedFrame.bmp,2,Neutral,Female,3,1,1.0,91.44332122802734,91.44332122802734,0.0,95.42684173583984,95.42684173583984,0.0,94.45638275146484,94.45638275146484,0.0,1.0,1.0,0.0,'2',0.6030043959617615,0.6030043959617615,0.0,19.0
Neutral,stimuli/29M_NE_C.BMP,stimuli/29M_NE_C.BMP,stimuli/24M_NE_C.BMP,stimuli/EmptyFrame.bmp,stimuli/RedFrame.bmp,1,Neutral,Male,3,1,1.0,95.4574966430664,95.4574966430664,0.0,99.44523620605469,99.44523620605469,0.0,98.45486450195312,98.45486450195312,0.0,1.0,1.0,0.0,'1',0.7279441952705383,0.7279441952705383,0.0,20.0
Neutral,stimuli/11F_NE_C.BMP,stimuli/10F_NE_C.BMP,stimuli/11F_NE_C.BMP,stimuli/EmptyFrame.bmp,stimuli/RedFrame.bmp,2,Neutral,Female,3,1,1.0,99.46605682373047,99.46605682373047,0.0,103.45622253417969,103.45622253417969,0.0,102.48665618896484,102.48665618896484,0.0,1.0,1.0,0.0,'2',0.579791784286499,0.579791784286499,0.0,21.0
MatchShape,stimuli/MatchShapes.bmp,stimuli/EmptyFace.bmp,stimuli/EmptyFace.bmp,stimuli/EmptyFrame.bmp,stimuli/EmptyFrame.bmp,Null,None,None,3,1,1.0,103.52073669433594,103.52073669433594,0.0,107.45836639404297,107.45836639404297,0.0,106.46234130859375,106.46234130859375,0.0,0.0,0.0,0.0,,,,,22.0
Shape,stimuli/circle.bmp,stimuli/vertical.bmp,stimuli/circle.bmp,stimuli/EmptyFrame.bmp,stimuli/RedFrame.bmp,2,Shape,None,3,1,1.0,107.50421142578125,107.50421142578125,0.0,111.4847640991211,111.4847640991211,0.0,110.49320983886719,110.49320983886719,0.0,1.0,1.0,0.0,'2',0.7059118151664734,0.7059118151664734,0.0,23.0
Shape,stimuli/horizontal.bmp,stimuli/circle.bmp,stimuli/horizontal.bmp,stimuli/EmptyFrame.bmp,stimuli/RedFrame.bmp,2,Shape,None,3,1,1.0,111.51382446289062,111.51382446289062,0.0,115.49432373046875,115.49432373046875,0.0,114.51644897460938,114.51644897460938,0.0,1.0,1.0,0.0,'2',0.6802738904953003,0.6802738904953003,0.0,24.0
Shape,stimuli/circle.bmp,stimuli/vertical.bmp,stimuli/circle.bmp,stimuli/EmptyFrame.bmp,stimuli/RedFrame.bmp,2,Shape,None,3,1,1.0,115.51904296875,115.51904296875,0.0,119.5137939453125,119.5137939453125,0.0,118.52691650390625,118.52691650390625,0.0,1.0,1.0,0.0,'2',0.6106852889060974,0.6106852889060974,0.0,25.0
Shape,stimuli/vertical.bmp,stimuli/circle.bmp,stimuli/vertical.bmp,stimuli/EmptyFrame.bmp,stimuli/RedFrame.bmp,2,Shape,None,3,1,1.0,119.53704071044922,119.53704071044922,0.0,123.53178405761719,123.53178405761719,0.0,122.55732727050781,122.55732727050781,0.0,1.0,1.0,0.0,'2',0.610636293888092,0.610636293888092,0.0,26.0
Shape,stimuli/vertical.bmp,stimuli/horizontal.bmp,stimuli/vertical.bmp,stimuli/EmptyFrame.bmp,stimuli/RedFrame.bmp,2,Shape,None,3,1,1.0,123.55397033691406,123.55397033691406,0.0,127.5441665649414,127.5441665649414,0.0,126.55493927001953,126.55493927001953,0.0,1.0,1.0,0.0,'2',1.211047887802124,1.211047887802124,0.0,27.0
Shape,stimuli/horizontal.bmp,stimuli/horizontal.bmp,stimuli/vertical.bmp,stimuli/EmptyFrame.bmp,stimuli/RedFrame.bmp,1,Shape,None,3,1,1.0,127.5678482055664,127.5678482055664,0.0,131.56781005859375,131.56781005859375,0.0,130.57330322265625,130.57330322265625,0.0,1.0,1.0,0.0,'1',1.0864144563674927,1.0864144563674927,0.0,28.0
Shape,stimuli/horizontal.bmp,stimuli/circle.bmp,stimuli/horizontal.bmp,stimuli/EmptyFrame.bmp,stimuli/RedFrame.bmp,2,Shape,None,3,1,1.0,131.5933380126953,131.5933380126953,0.0,135.58714294433594,135.58714294433594,0.0,134.60162353515625,134.60162353515625,0.0,1.0,1.0,0.0,'2',0.6390355825424194,0.6390355825424194,0.0,29.0
Shape,stimuli/circle.bmp,stimuli/circle.bmp,stimuli/vertical.bmp,stimuli/EmptyFrame.bmp,stimuli/RedFrame.bmp,1,Shape,None,3,1,1.0,135.61582946777344,135.61582946777344,0.0,139.6043701171875,139.6043701171875,0.0,138.6155242919922,138.6155242919922,0.0,1.0,1.0,0.0,'1',0.7043461203575134,0.7043461203575134,0.0,30.0
Shape,stimuli/vertical.bmp,stimuli/horizontal.bmp,stimuli/vertical.bmp,stimuli/EmptyFrame.bmp,stimuli/RedFrame.bmp,2,Shape,None,3,1,1.0,139.62757873535156,139.62757873535156,0.0,143.6329345703125,143.6329345703125,0.0,142.6296844482422,142.6296844482422,0.0,1.0,1.0,0.0,'2',0.9528930187225342,0.9528930187225342,0.0,31.0
Shape,stimuli/vertical.bmp,stimuli/vertical.bmp,stimuli/horizontal.bmp,stimuli/EmptyFrame.bmp,stimuli/RedFrame.bmp,1,Shape,None,3,1,1.0,143.65895080566406,143.65895080566406,0.0,147.6508331298828,147.6508331298828,0.0,146.66400146484375,146.66400146484375,0.0,1.0,1.0,0.0,'1',0.7990403175354004,0.7990403175354004,0.0,32.0
MatchFaces,stimuli/MatchFaces.bmp,stimuli/EmptyFace.bmp,stimuli/EmptyFace.bmp,stimuli/EmptyFrame.bmp,stimuli/EmptyFrame.bmp,Null,None,None,3,1,1.0,147.89923095703125,147.89923095703125,0.0,151.6571502685547,151.6571502685547,0.0,150.66372680664062,150.66372680664062,0.0,0.0,0.0,0.0,,,,,33.0
Anger,stimuli/20M_AN_O.BMP,stimuli/34M_AN_O.BMP,stimuli/20M_AN_O.BMP,stimuli/EmptyFrame.bmp,stimuli/RedFrame.bmp,2,Anger,Male,3,1,1.0,151.7246551513672,151.7246551513672,0.0,155.6864471435547,155.6864471435547,0.0,154.70042419433594,154.70042419433594,0.0,1.0,1.0,0.0,'2',0.8964439034461975,0.8964439034461975,0.0,34.0
Anger,stimuli/01F_AN_O.bmp,stimuli/19F_AN_O.BMP,stimuli/01F_AN_O.bmp,stimuli/EmptyFrame.bmp,stimuli/RedFrame.bmp,2,Anger,Female,3,1,1.0,155.71768188476562,155.71768188476562,0.0,159.70372009277344,159.70372009277344,0.0,158.72097778320312,158.72097778320312,0.0,1.0,1.0,0.0,'2',0.8362231254577637,0.8362231254577637,0.0,35.0
Anger,stimuli/06F_AN_O.bmp,stimuli/15F_AN_O.BMP,stimuli/06F_AN_O.bmp,stimuli/EmptyFrame.bmp,stimuli/RedFrame.bmp,2,Anger,Female,3,1,1.0,159.7307586669922,159.7307586669922,0.0,163.71644592285156,163.71644592285156,0.0,162.72715759277344,162.72715759277344,0.0,1.0,1.0,0.0,'2',0.7338504791259766,0.7338504791259766,0.0,36.0
Anger,stimuli/42M_AN_O.BMP,stimuli/42M_AN_O.BMP,stimuli/43M_AN_O.BMP,stimuli/EmptyFrame.bmp,stimuli/RedFrame.bmp,1,Anger,Male,3,1,1.0,163.74554443359375,163.74554443359375,0.0,167.73155212402344,167.73155212402344,0.0,166.749267578125,166.749267578125,0.0,1.0,1.0,0.0,'1',0.7653185129165649,0.7653185129165649,0.0,37.0
Anger,stimuli/40M_AN_O.BMP,stimuli/41M_AN_O.BMP,stimuli/40M_AN_O.BMP,stimuli/EmptyFrame.bmp,stimuli/RedFrame.bmp,2,Anger,Male,3,1,1.0,167.760009765625,167.760009765625,0.0,171.7440185546875,171.7440185546875,0.0,170.76687622070312,170.76687622070312,0.0,1.0,1.0,0.0,'2',0.6637862920761108,0.6637862920761108,0.0,38.0
Anger,stimuli/08F_AN_O.BMP,stimuli/08F_AN_O.BMP,stimuli/13F_AN_O.BMP,stimuli/EmptyFrame.bmp,stimuli/RedFrame.bmp,1,Anger,Female,3,1,1.0,171.775146484375,171.775146484375,0.0,175.76666259765625,175.76666259765625,0.0,174.78147888183594,174.78147888183594,0.0,1.0,1.0,0.0,'1',0.567124605178833,0.567124605178833,0.0,39.0
Anger,stimuli/09F_AN_O.BMP,stimuli/12F_AN_O.BMP,stimuli/09F_AN_O.BMP,stimuli/EmptyFrame.bmp,stimuli/RedFrame.bmp,2,Anger,Female,3,1,1.0,175.79737854003906,175.79737854003906,0.0,179.7837677001953,179.7837677001953,0.0,178.80914306640625,178.80914306640625,0.0,1.0,1.0,0.0,'2',0.5788756012916565,0.5788756012916565,0.0,40.0
Anger,stimuli/34M_AN_O.BMP,stimuli/35M_AN_O.BMP,stimuli/34M_AN_O.BMP,stimuli/EmptyFrame.bmp,stimuli/RedFrame.bmp,2,Anger,Male,3,1,1.0,179.8157958984375,179.8157958984375,0.0,183.80552673339844,183.80552673339844,0.0,182.81900024414062,182.81900024414062,0.0,1.0,1.0,0.0,'2',0.6627343893051147,0.6627343893051147,0.0,41.0
Anger,stimuli/24M_AN_O.BMP,stimuli/24M_AN_O.BMP,stimuli/30M_AN_O.BMP,stimuli/EmptyFrame.bmp,stimuli/RedFrame.bmp,1,Anger,Male,3,1,1.0,183.8370361328125,183.8370361328125,0.0,187.8182830810547,187.8182830810547,0.0,186.8321990966797,186.8321990966797,0.0,1.0,1.0,0.0,'1',1.0614736080169678,1.0614736080169678,0.0,42.0
Anger,stimuli/03F_AN_O.bmp,stimuli/03F_AN_O.bmp,stimuli/17F_AN_O.BMP,stimuli/EmptyFrame.bmp,stimuli/RedFrame.bmp,1,Anger,Female,3,1,1.0,187.8529815673828,187.8529815673828,0.0,191.8319091796875,191.8319091796875,0.0,190.84872436523438,190.84872436523438,0.0,1.0,1.0,0.0,'1',0.7953094244003296,0.7953094244003296,0.0,43.0
MatchFaces,stimuli/MatchFaces.bmp,stimuli/EmptyFace.bmp,stimuli/EmptyFace.bmp,stimuli/EmptyFrame.bmp,stimuli/EmptyFrame.bmp,Null,None,None,3,1,1.0,192.2095947265625,192.2095947265625,0.0,195.84030151367188,195.84030151367188,0.0,194.8406219482422,194.8406219482422,0.0,0.0,0.0,0.0,,,,,44.0
Happy,stimuli/06F_HA_O.bmp,stimuli/07F_HA_O.BMP,stimuli/06F_HA_O.bmp,stimuli/EmptyFrame.bmp,stimuli/RedFrame.bmp,2,Happy,Female,3,1,1.0,195.906982421875,195.906982421875,0.0,199.8536376953125,199.8536376953125,0.0,198.86268615722656,198.86268615722656,0.0,1.0,1.0,0.0,'2',0.7343407869338989,0.7343407869338989,0.0,45.0
Happy,stimuli/13F_HA_O.BMP,stimuli/13F_HA_O.BMP,stimuli/12F_HA_O.BMP,stimuli/EmptyFrame.bmp,stimuli/RedFrame.bmp,1,Happy,Female,3,1,1.0,199.88641357421875,199.88641357421875,0.0,203.86607360839844,203.86607360839844,0.0,202.8883514404297,202.8883514404297,0.0,1.0,1.0,0.0,'1',0.6104568839073181,0.6104568839073181,0.0,46.0
Happy,stimuli/41M_HA_O.BMP,stimuli/41M_HA_O.BMP,stimuli/40M_HA_O.BMP,stimuli/EmptyFrame.bmp,stimuli/RedFrame.bmp,1,Happy,Male,3,1,1.0,203.89967346191406,203.89967346191406,0.0,207.884765625,207.884765625,0.0,206.906982421875,206.906982421875,0.0,1.0,1.0,0.0,'1',0.6270459890365601,0.6270459890365601,0.0,47.0
Happy,stimuli/03F_HA_O.bmp,stimuli/05F_HA_O.bmp,stimuli/03F_HA_O.bmp,stimuli/EmptyFrame.bmp,stimuli/RedFrame.bmp,2,Happy,Female,3,1,1.0,207.91415405273438,207.91415405273438,0.0,211.9115447998047,211.9115447998047,0.0,210.91781616210938,210.91781616210938,0.0,1.0,1.0,0.0,'2',0.8541421890258789,0.8541421890258789,0.0,48.0
Happy,stimuli/24M_HA_O.BMP,stimuli/24M_HA_O.BMP,stimuli/25M_HA_O.BMP,stimuli/EmptyFrame.bmp,stimuli/RedFrame.bmp,1,Happy,Male,3,1,1.0,211.9419403076172,211.9419403076172,0.0,215.92747497558594,215.92747497558594,0.0,214.94435119628906,214.94435119628906,0.0,1.0,1.0,0.0,'1',0.9357352256774902,0.9357352256774902,0.0,49.0
Happy,stimuli/19F_HA_O.BMP,stimuli/19F_HA_O.BMP,stimuli/18F_HA_O.BMP,stimuli/EmptyFrame.bmp,stimuli/RedFrame.bmp,1,Happy,Female,3,1,1.0,215.96072387695312,215.96072387695312,0.0,219.95140075683594,219.95140075683594,0.0,218.96510314941406,218.96510314941406,0.0,1.0,1.0,0.0,'1',0.6294674277305603,0.6294674277305603,0.0,50.0
Happy,stimuli/01F_HA_O.bmp,stimuli/01F_HA_O.bmp,stimuli/02F_HA_O.bmp,stimuli/EmptyFrame.bmp,stimuli/RedFrame.bmp,1,Happy,Female,3,1,1.0,219.99066162109375,219.99066162109375,0.0,223.96759033203125,223.96759033203125,0.0,222.98052978515625,222.98052978515625,0.0,1.0,1.0,0.0,'1',0.6385586857795715,0.6385586857795715,0.0,51.0
Happy,stimuli/22M_HA_O.BMP,stimuli/23M_HA_O.BMP,stimuli/22M_HA_O.BMP,stimuli/EmptyFrame.bmp,stimuli/RedFrame.bmp,2,Happy,Male,3,1,1.0,223.99989318847656,223.99989318847656,0.0,227.98301696777344,227.98301696777344,0.0,226.9965057373047,226.9965057373047,0.0,1.0,1.0,0.0,'2',0.7740175724029541,0.7740175724029541,0.0,52.0
Happy,stimuli/35M_HA_O.BMP,stimuli/34M_HA_O.BMP,stimuli/35M_HA_O.BMP,stimuli/EmptyFrame.bmp,stimuli/RedFrame.bmp,2,Happy,Male,3,1,1.0,228.0437469482422,228.0437469482422,0.0,232.0015411376953,232.0015411376953,0.0,231.02537536621094,231.02537536621094,0.0,1.0,1.0,0.0,'2',0.8194810152053833,0.8194810152053833,0.0,53.0
Happy,stimuli/39M_HA_O.BMP,stimuli/38M_HA_O.BMP,stimuli/39M_HA_O.BMP,stimuli/EmptyFrame.bmp,stimuli/RedFrame.bmp,2,Happy,Male,3,1,1.0,232.0311737060547,232.0311737060547,0.0,236.0137176513672,236.0137176513672,0.0,235.02432250976562,235.02432250976562,0.0,1.0,1.0,0.0,'2',0.825969398021698,0.825969398021698,0.0,54.0
Match Shape,stimuli/MatchShapes.bmp,stimuli/EmptyFace.bmp,stimuli/EmptyFace.bmp,stimuli/EmptyFrame.bmp,stimuli/EmptyFrame.bmp,Null,None,None,3,1,1.0,236.0402069091797,236.0402069091797,0.0,240.0244903564453,240.0244903564453,0.0,239.0423126220703,239.0423126220703,0.0,0.0,0.0,0.0,,,,,55.0
Shape,stimuli/horizontal.bmp,stimuli/horizontal.bmp,stimuli/vertical.bmp,stimuli/EmptyFrame.bmp,stimuli/RedFrame.bmp,1,Shape,None,3,1,1.0,240.05601501464844,240.05601501464844,0.0,244.0486602783203,244.0486602783203,0.0,243.06805419921875,243.06805419921875,0.0,1.0,1.0,0.0,'1',1.1543145179748535,1.1543145179748535,0.0,56.0
Shape,stimuli/horizontal.bmp,stimuli/horizontal.bmp,stimuli/circle.bmp,stimuli/EmptyFrame.bmp,stimuli/RedFrame.bmp,1,Shape,None,3,1,1.0,244.0736541748047,244.0736541748047,0.0,248.06092834472656,248.06092834472656,0.0,247.0785675048828,247.0785675048828,0.0,1.0,1.0,0.0,'1',0.6073408126831055,0.6073408126831055,0.0,57.0
Shape,stimuli/circle.bmp,stimuli/vertical.bmp,stimuli/circle.bmp,stimuli/EmptyFrame.bmp,stimuli/RedFrame.bmp,2,Shape,None,3,1,1.0,248.08314514160156,248.08314514160156,0.0,252.08056640625,252.08056640625,0.0,251.0982666015625,251.0982666015625,0.0,1.0,1.0,0.0,'2',0.6425235271453857,0.6425235271453857,0.0,58.0
Shape,stimuli/vertical.bmp,stimuli/vertical.bmp,stimuli/circle.bmp,stimuli/EmptyFrame.bmp,stimuli/RedFrame.bmp,1,Shape,None,3,1,1.0,252.10504150390625,252.10504150390625,0.0,256.0975646972656,256.0975646972656,0.0,255.1157684326172,255.1157684326172,0.0,1.0,1.0,0.0,'1',0.5912169218063354,0.5912169218063354,0.0,59.0
Shape,stimuli/horizontal.bmp,stimuli/horizontal.bmp,stimuli/circle.bmp,stimuli/EmptyFrame.bmp,stimuli/RedFrame.bmp,1,Shape,None,3,1,1.0,256.1236572265625,256.1236572265625,0.0,260.11322021484375,260.11322021484375,0.0,259.12744140625,259.12744140625,0.0,1.0,1.0,0.0,'1',1.0402928590774536,1.0402928590774536,0.0,60.0
Shape,stimuli/vertical.bmp,stimuli/vertical.bmp,stimuli/circle.bmp,stimuli/EmptyFrame.bmp,stimuli/RedFrame.bmp,1,Shape,None,3,1,1.0,260.1402282714844,260.1402282714844,0.0,264.1368408203125,264.1368408203125,0.0,263.14349365234375,263.14349365234375,0.0,1.0,1.0,0.0,'1',0.5865401029586792,0.5865401029586792,0.0,61.0
Shape,stimuli/horizontal.bmp,stimuli/circle.bmp,stimuli/horizontal.bmp,stimuli/EmptyFrame.bmp,stimuli/RedFrame.bmp,2,Shape,None,3,1,1.0,264.15814208984375,264.15814208984375,0.0,268.1567687988281,268.1567687988281,0.0,267.1900634765625,267.1900634765625,0.0,1.0,1.0,0.0,'2',0.640631377696991,0.640631377696991,0.0,62.0
Shape,stimuli/circle.bmp,stimuli/circle.bmp,stimuli/horizontal.bmp,stimuli/EmptyFrame.bmp,stimuli/RedFrame.bmp,1,Shape,None,3,1,1.0,268.18157958984375,268.18157958984375,0.0,272.1679992675781,272.1679992675781,0.0,271.1985778808594,271.1985778808594,0.0,1.0,1.0,0.0,'1',0.7661402225494385,0.7661402225494385,0.0,63.0
Shape,stimuli/circle.bmp,stimuli/horizontal.bmp,stimuli/circle.bmp,stimuli/EmptyFrame.bmp,stimuli/RedFrame.bmp,2,Shape,None,3,1,1.0,272.1911315917969,272.1911315917969,0.0,276.18359375,276.18359375,0.0,275.2005310058594,275.2005310058594,0.0,1.0,1.0,0.0,'2',0.7576053738594055,0.7576053738594055,0.0,64.0
Shape,stimuli/vertical.bmp,stimuli/vertical.bmp,stimuli/horizontal.bmp,stimuli/EmptyFrame.bmp,stimuli/RedFrame.bmp,1,Shape,None,3,1,1.0,276.2032165527344,276.2032165527344,0.0,280.20684814453125,280.20684814453125,0.0,279.2100830078125,279.2100830078125,0.0,1.0,1.0,0.0,'1',0.6988635063171387,0.6988635063171387,0.0,65.0
MatchFaces,stimuli/MatchFaces.bmp,stimuli/EmptyFace.bmp,stimuli/EmptyFace.bmp,stimuli/EmptyFrame.bmp,stimuli/EmptyFrame.bmp,Null,None,None,3,1,1.0,280.55987548828125,280.55987548828125,0.0,284.2098693847656,284.2098693847656,0.0,283.2279968261719,283.2279968261719,0.0,0.0,0.0,0.0,,,,,66.0
Neutral,stimuli/20M_NE_C.BMP,stimuli/21M_NE_C.BMP,stimuli/20M_NE_C.BMP,stimuli/EmptyFrame.bmp,stimuli/RedFrame.bmp,2,Neutral,Male,3,1,1.0,284.2832946777344,284.2832946777344,0.0,288.2294921875,288.2294921875,0.0,287.235595703125,287.235595703125,0.0,1.0,1.0,0.0,'2',0.7752155065536499,0.7752155065536499,0.0,67.0
Neutral,stimuli/01F_NE_C.bmp,stimuli/01F_NE_C.bmp,stimuli/02F_NE_C.bmp,stimuli/EmptyFrame.bmp,stimuli/RedFrame.bmp,1,Neutral,Female,3,1,1.0,288.29681396484375,288.29681396484375,0.0,292.2485046386719,292.2485046386719,0.0,291.2672424316406,291.2672424316406,0.0,1.0,1.0,0.0,'1',0.6279814839363098,0.6279814839363098,0.0,68.0
Neutral,stimuli/22M_NE_C.BMP,stimuli/23M_NE_C.BMP,stimuli/22M_NE_C.BMP,stimuli/EmptyFrame.bmp,stimuli/RedFrame.bmp,2,Neutral,Male,3,1,1.0,292.28228759765625,292.28228759765625,0.0,296.2685852050781,296.2685852050781,0.0,295.280517578125,295.280517578125,0.0,1.0,1.0,0.0,'2',0.8261367082595825,0.8261367082595825,0.0,69.0
Neutral,stimuli/24M_NE_C.BMP,stimuli/24M_NE_C.BMP,stimuli/25M_NE_C.BMP,stimuli/EmptyFrame.bmp,stimuli/RedFrame.bmp,1,Neutral,Male,3,1,1.0,296.2980041503906,296.2980041503906,0.0,300.2813415527344,300.2813415527344,0.0,299.299560546875,299.299560546875,0.0,1.0,1.0,0.0,'1',0.7769069075584412,0.7769069075584412,0.0,70.0
Neutral,stimuli/03F_NE_C.bmp,stimuli/05F_NE_C.bmp,stimuli/03F_NE_C.bmp,stimuli/EmptyFrame.bmp,stimuli/RedFrame.bmp,2,Neutral,Female,3,1,1.0,300.3078308105469,300.3078308105469,0.0,304.3009948730469,304.3009948730469,0.0,303.3051452636719,303.3051452636719,0.0,1.0,1.0,0.0,'2',0.7488418221473694,0.7488418221473694,0.0,71.0
Neutral,stimuli/26M_NE_C.BMP,stimuli/26M_NE_C.BMP,stimuli/27M_NE_C.BMP,stimuli/EmptyFrame.bmp,stimuli/RedFrame.bmp,1,Neutral,Male,3,1,1.0,304.3318786621094,304.3318786621094,0.0,308.331298828125,308.331298828125,0.0,307.3450927734375,307.3450927734375,0.0,1.0,1.0,0.0,'1',0.7825098037719727,0.7825098037719727,0.0,72.0
Neutral,stimuli/06F_NE_C.bmp,stimuli/07F_NE_C.BMP,stimuli/06F_NE_C.bmp,stimuli/EmptyFrame.bmp,stimuli/RedFrame.bmp,2,Neutral,Female,3,1,1.0,308.3575134277344,308.3575134277344,0.0,312.34844970703125,312.34844970703125,0.0,311.39337158203125,311.39337158203125,0.0,1.0,1.0,0.0,'2',0.8266012072563171,0.8266012072563171,0.0,73.0
Neutral,stimuli/08F_NE_C.BMP,stimuli/08F_NE_C.BMP,stimuli/09F_NE_C.BMP,stimuli/EmptyFrame.bmp,stimuli/RedFrame.bmp,1,Neutral,Female,3,1,1.0,312.3763427734375,312.3763427734375,0.0,316.37255859375,316.37255859375,0.0,315.38336181640625,315.38336181640625,0.0,1.0,1.0,0.0,'1',0.9208599925041199,0.9208599925041199,0.0,74.0
Neutral,stimuli/28M_NE_C.BMP,stimuli/29M_NE_C.BMP,stimuli/28M_NE_C.BMP,stimuli/EmptyFrame.bmp,stimuli/RedFrame.bmp,2,Neutral,Male,3,1,1.0,316.39581298828125,316.39581298828125,0.0,320.3829345703125,320.3829345703125,0.0,319.4057312011719,319.4057312011719,0.0,1.0,1.0,0.0,'2',0.8003429174423218,0.8003429174423218,0.0,75.0
Neutral,stimuli/10F_NE_C.BMP,stimuli/10F_NE_C.BMP,stimuli/06F_NE_C.bmp,stimuli/EmptyFrame.bmp,stimuli/RedFrame.bmp,1,Neutral,Female,3,1,1.0,320.4070739746094,320.4070739746094,0.0,324.39508056640625,324.39508056640625,0.0,323.4131164550781,323.4131164550781,0.0,1.0,1.0,0.0,'1',0.7312512993812561,0.7312512993812561,0.0,76.0
MatchFaces,stimuli/MatchFaces.bmp,stimuli/EmptyFace.bmp,stimuli/EmptyFace.bmp,stimuli/EmptyFrame.bmp,stimuli/EmptyFrame.bmp,Null,None,None,3,1,1.0,324.662841796875,324.662841796875,0.0,328.4083251953125,328.4083251953125,0.0,327.4108581542969,327.4108581542969,0.0,0.0,0.0,0.0,,,,,77.0
Happy,stimuli/28M_HA_O.BMP,stimuli/29M_HA_O.BMP,stimuli/28M_HA_O.BMP,stimuli/EmptyFrame.bmp,stimuli/RedFrame.bmp,2,Happy,Male,3,1,1.0,328.4789123535156,328.4789123535156,0.0,332.4365539550781,332.4365539550781,0.0,331.44134521484375,331.44134521484375,0.0,1.0,1.0,0.0,'2',0.7204049825668335,0.7204049825668335,0.0,78.0
Happy,stimuli/10F_HA_O.BMP,stimuli/10F_HA_O.BMP,stimuli/06F_HA_O.bmp,stimuli/EmptyFrame.bmp,stimuli/RedFrame.bmp,1,Happy,Female,3,1,1.0,332.4678039550781,332.4678039550781,0.0,336.4486083984375,336.4486083984375,0.0,335.46881103515625,335.46881103515625,0.0,1.0,1.0,0.0,'1',0.6781967878341675,0.6781967878341675,0.0,79.0
Happy,stimuli/26M_HA_O.BMP,stimuli/26M_HA_O.BMP,stimuli/27M_HA_O.BMP,stimuli/EmptyFrame.bmp,stimuli/RedFrame.bmp,1,Happy,Male,3,1,1.0,336.4878234863281,336.4878234863281,0.0,340.4709167480469,340.4709167480469,0.0,339.4853820800781,339.4853820800781,0.0,1.0,1.0,0.0,'1',0.9500523209571838,0.9500523209571838,0.0,80.0
Happy,stimuli/20M_HA_O.BMP,stimuli/21M_HA_O.BMP,stimuli/20M_HA_O.BMP,stimuli/EmptyFrame.bmp,stimuli/RedFrame.bmp,2,Happy,Male,3,1,1.0,340.4952392578125,340.4952392578125,0.0,344.4808654785156,344.4808654785156,0.0,343.5072937011719,343.5072937011719,0.0,1.0,1.0,0.0,'2',0.7298362851142883,0.7298362851142883,0.0,81.0
Happy,stimuli/37M_HA_O.BMP,stimuli/37M_HA_O.BMP,stimuli/36M_HA_O.BMP,stimuli/EmptyFrame.bmp,stimuli/RedFrame.bmp,1,Happy,Male,3,1,1.0,344.51361083984375,344.51361083984375,0.0,348.5047607421875,348.5047607421875,0.0,347.5183410644531,347.5183410644531,0.0,1.0,1.0,0.0,'1',0.6561282873153687,0.6561282873153687,0.0,82.0
Happy,stimuli/43M_HA_O.BMP,stimuli/42M_HA_O.BMP,stimuli/43M_HA_O.BMP,stimuli/EmptyFrame.bmp,stimuli/RedFrame.bmp,2,Happy,Male,3,1,1.0,348.5724182128906,348.5724182128906,0.0,352.521484375,352.521484375,0.0,351.5498046875,351.5498046875,0.0,1.0,1.0,0.0,'2',0.5708785057067871,0.5708785057067871,0.0,83.0
Happy,stimuli/11F_HA_O.BMP,stimuli/10F_HA_O.BMP,stimuli/11F_HA_O.BMP,stimuli/EmptyFrame.bmp,stimuli/RedFrame.bmp,2,Happy,Female,3,1,1.0,352.551025390625,352.551025390625,0.0,356.53265380859375,356.53265380859375,0.0,355.55145263671875,355.55145263671875,0.0,1.0,1.0,0.0,'2',0.6412509083747864,0.6412509083747864,0.0,84.0
Happy,stimuli/17F_HA_O.BMP,stimuli/16F_HA_O.BMP,stimuli/17F_HA_O.BMP,stimuli/EmptyFrame.bmp,stimuli/RedFrame.bmp,2,Happy,Female,3,1,1.0,356.5620422363281,356.5620422363281,0.0,360.5502624511719,360.5502624511719,0.0,359.561767578125,359.561767578125,0.0,1.0,1.0,0.0,'2',0.842496395111084,0.842496395111084,0.0,85.0
Happy,stimuli/15F_HA_O.BMP,stimuli/15F_HA_O.BMP,stimuli/14F_HA_O.BMP,stimuli/EmptyFrame.bmp,stimuli/RedFrame.bmp,1,Happy,Female,3,1,1.0,360.5755920410156,360.5755920410156,0.0,364.5618591308594,364.5618591308594,0.0,363.5886535644531,363.5886535644531,0.0,1.0,1.0,0.0,'1',0.6517261266708374,0.6517261266708374,0.0,86.0
Happy,stimuli/08F_HA_O.BMP,stimuli/08F_HA_O.BMP,stimuli/09F_HA_O.BMP,stimuli/EmptyFrame.bmp,stimuli/RedFrame.bmp,1,Happy,Female,3,1,1.0,364.6263122558594,364.6263122558594,0.0,368.57818603515625,368.57818603515625,0.0,367.59197998046875,367.59197998046875,0.0,1.0,1.0,0.0,'1',0.6687315702438354,0.6687315702438354,0.0,87.0
MatchFaces,stimuli/MatchFaces.bmp,stimuli/EmptyFace.bmp,stimuli/EmptyFace.bmp,stimuli/EmptyFrame.bmp,stimuli/EmptyFrame.bmp,Null,None,None,3,1,1.0,368.8605651855469,368.8605651855469,0.0,372.58843994140625,372.58843994140625,0.0,371.5916442871094,371.5916442871094,0.0,0.0,0.0,0.0,,,,,88.0
Fear,stimuli/34M_FE_O.BMP,stimuli/34M_FE_O.BMP,stimuli/33M_FE_O.BMP,stimuli/EmptyFrame.bmp,stimuli/RedFrame.bmp,1,Fear,Male,3,1,1.0,372.7016296386719,372.7016296386719,0.0,376.6111755371094,376.6111755371094,0.0,375.6119079589844,375.6119079589844,0.0,1.0,1.0,0.0,'1',0.63595050573349,0.63595050573349,0.0,89.0
Fear,stimuli/28M_FE_O.BMP,stimuli/28M_FE_O.BMP,stimuli/25M_FE_O.BMP,stimuli/EmptyFrame.bmp,stimuli/RedFrame.bmp,1,Fear,Male,3,1,1.0,376.6398620605469,376.6398620605469,0.0,380.6326904296875,380.6326904296875,0.0,379.6368408203125,379.6368408203125,0.0,1.0,1.0,0.0,'1',0.6301413774490356,0.6301413774490356,0.0,90.0
Fear,stimuli/11F_FE_O.BMP,stimuli/10F_FE_O.BMP,stimuli/11F_FE_O.BMP,stimuli/EmptyFrame.bmp,stimuli/RedFrame.bmp,2,Fear,Female,3,1,1.0,380.6553649902344,380.6553649902344,0.0,384.6441345214844,384.6441345214844,0.0,383.6561279296875,383.6561279296875,0.0,1.0,1.0,0.0,'2',0.6144829988479614,0.6144829988479614,0.0,91.0
Fear,stimuli/27M_FE_O.BMP,stimuli/26M_FE_O.BMP,stimuli/27M_FE_O.BMP,stimuli/EmptyFrame.bmp,stimuli/RedFrame.bmp,2,Fear,Male,3,1,1.0,384.66729736328125,384.66729736328125,0.0,388.6679382324219,388.6679382324219,0.0,387.6792297363281,387.6792297363281,0.0,1.0,1.0,0.0,'2',0.8013691902160645,0.8013691902160645,0.0,92.0
Fear,stimuli/11F_FE_O.BMP,stimuli/12F_FE_O.BMP,stimuli/11F_FE_O.BMP,stimuli/EmptyFrame.bmp,stimuli/RedFrame.bmp,2,Fear,Female,3,1,1.0,388.6972351074219,388.6972351074219,0.0,392.6949157714844,392.6949157714844,0.0,391.7015686035156,391.7015686035156,0.0,1.0,1.0,0.0,'2',0.8639861941337585,0.8639861941337585,0.0,93.0
Fear,stimuli/31M_FE_O.BMP,stimuli/31M_FE_O.BMP,stimuli/38M_FE_O.BMP,stimuli/EmptyFrame.bmp,stimuli/RedFrame.bmp,1,Fear,Male,3,1,1.0,392.7279052734375,392.7279052734375,0.0,396.7208251953125,396.7208251953125,0.0,395.7360534667969,395.7360534667969,0.0,1.0,1.0,0.0,'1',0.5461010932922363,0.5461010932922363,0.0,94.0
Fear,stimuli/29M_FE_O.BMP,stimuli/29M_FE_O.BMP,stimuli/24M_FE_O.BMP,stimuli/EmptyFrame.bmp,stimuli/RedFrame.bmp,1,Fear,Male,3,1,1.0,396.749755859375,396.749755859375,0.0,400.7306823730469,400.7306823730469,0.0,399.76922607421875,399.76922607421875,0.0,1.0,1.0,0.0,'1',0.6420419216156006,0.6420419216156006,0.0,95.0
Fear,stimuli/25M_FE_O.BMP,stimuli/29M_FE_O.BMP,stimuli/25M_FE_O.BMP,stimuli/EmptyFrame.bmp,stimuli/RedFrame.bmp,2,Fear,Male,3,1,1.0,400.7572937011719,400.7572937011719,0.0,404.744384765625,404.744384765625,0.0,403.7530212402344,403.7530212402344,0.0,1.0,1.0,0.0,'2',0.7952085733413696,0.7952085733413696,0.0,96.0
Fear,stimuli/15F_FE_O.BMP,stimuli/18F_FE_O.BMP,stimuli/15F_FE_O.BMP,stimuli/EmptyFrame.bmp,stimuli/RedFrame.bmp,2,Fear,Female,3,1,1.0,404.7745361328125,404.7745361328125,0.0,408.7576599121094,408.7576599121094,0.0,407.7770080566406,407.7770080566406,0.0,1.0,1.0,0.0,'2',0.6874691843986511,0.6874691843986511,0.0,97.0
Fear,stimuli/09F_FE_O.BMP,stimuli/09F_FE_O.BMP,stimuli/12F_FE_O.BMP,stimuli/EmptyFrame.bmp,stimuli/RedFrame.bmp,1,Fear,Female,3,1,1.0,408.78533935546875,408.78533935546875,0.0,412.7784118652344,412.7784118652344,0.0,411.7919921875,411.7919921875,0.0,1.0,1.0,0.0,'1',0.48689961433410645,0.48689961433410645,0.0,98.0
MatchFaces,stimuli/MatchFaces.bmp,stimuli/EmptyFace.bmp,stimuli/EmptyFace.bmp,stimuli/EmptyFrame.bmp,stimuli/EmptyFrame.bmp,Null,None,None,3,1,1.0,413.1146240234375,413.1146240234375,0.0,416.790283203125,416.790283203125,0.0,415.7927551269531,415.7927551269531,0.0,0.0,0.0,0.0,,,,,99.0
Anger,stimuli/23M_AN_O.BMP,stimuli/23M_AN_O.BMP,stimuli/31M_AN_O.BMP,stimuli/EmptyFrame.bmp,stimuli/RedFrame.bmp,1,Anger,Male,3,1,1.0,416.8620910644531,416.8620910644531,0.0,420.8091125488281,420.8091125488281,0.0,419.8192443847656,419.8192443847656,0.0,1.0,1.0,0.0,'1',0.6462393999099731,0.6462393999099731,0.0,100.0
Anger,stimuli/36M_AN_O.BMP,stimuli/37M_AN_O.BMP,stimuli/36M_AN_O.BMP,stimuli/EmptyFrame.bmp,stimuli/RedFrame.bmp,2,Anger,Male,3,1,1.0,420.8448181152344,420.8448181152344,0.0,424.8216552734375,424.8216552734375,0.0,423.843994140625,423.843994140625,0.0,1.0,1.0,0.0,'2',0.9476572275161743,0.9476572275161743,0.0,101.0
Anger,stimuli/38M_AN_O.BMP,stimuli/39M_AN_O.BMP,stimuli/38M_AN_O.BMP,stimuli/EmptyFrame.bmp,stimuli/RedFrame.bmp,2,Anger,Male,3,1,1.0,424.8470153808594,424.8470153808594,0.0,428.8328552246094,428.8328552246094,0.0,427.8600158691406,427.8600158691406,0.0,1.0,1.0,0.0,'2',0.7921075820922852,0.7921075820922852,0.0,102.0
Anger,stimuli/02f_an_o.bmp,stimuli/18F_AN_O.BMP,stimuli/02f_an_o.bmp,stimuli/EmptyFrame.bmp,stimuli/RedFrame.bmp,2,Anger,Female,3,1,1.0,428.8621826171875,428.8621826171875,0.0,432.8641357421875,432.8641357421875,0.0,431.8680114746094,431.8680114746094,0.0,1.0,1.0,0.0,'2',0.6699026226997375,0.6699026226997375,0.0,103.0
Anger,stimuli/22M_AN_O.BMP,stimuli/32M_AN_O.BMP,stimuli/22M_AN_O.BMP,stimuli/EmptyFrame.bmp,stimuli/RedFrame.bmp,2,Anger,Male,3,1,1.0,432.8970031738281,432.8970031738281,0.0,436.88055419921875,436.88055419921875,0.0,435.904052734375,435.904052734375,0.0,1.0,1.0,0.0,'2',0.6588389277458191,0.6588389277458191,0.0,104.0
Anger,stimuli/12F_AN_O.BMP,stimuli/12F_AN_O.BMP,stimuli/13F_AN_O.BMP,stimuli/EmptyFrame.bmp,stimuli/RedFrame.bmp,1,Anger,Female,3,1,1.0,436.9089050292969,436.9089050292969,0.0,440.90008544921875,440.90008544921875,0.0,439.9175720214844,439.9175720214844,0.0,1.0,1.0,0.0,'1',0.9041966199874878,0.9041966199874878,0.0,105.0
Anger,stimuli/05F_AN_O.bmp,stimuli/05F_AN_O.bmp,stimuli/16F_AN_O.BMP,stimuli/EmptyFrame.bmp,stimuli/RedFrame.bmp,1,Anger,Female,3,1,1.0,440.9302062988281,440.9302062988281,0.0,444.92218017578125,444.92218017578125,0.0,443.9375915527344,443.9375915527344,0.0,1.0,1.0,0.0,'1',0.9813687801361084,0.9813687801361084,0.0,106.0
Anger,stimuli/21M_AN_O.BMP,stimuli/21M_AN_O.BMP,stimuli/33M_AN_O.BMP,stimuli/EmptyFrame.bmp,stimuli/RedFrame.bmp,1,Anger,Male,3,1,1.0,444.9523620605469,444.9523620605469,0.0,448.9515075683594,448.9515075683594,0.0,447.9476318359375,447.9476318359375,0.0,1.0,1.0,0.0,'1',0.7956677079200745,0.7956677079200745,0.0,107.0
Anger,stimuli/07F_AN_O.BMP,stimuli/07F_AN_O.BMP,stimuli/14F_AN_O.BMP,stimuli/EmptyFrame.bmp,stimuli/RedFrame.bmp,1,Anger,Female,3,1,1.0,448.9847412109375,448.9847412109375,0.0,452.9655456542969,452.9655456542969,0.0,451.97943115234375,451.97943115234375,0.0,1.0,1.0,0.0,'1',0.5510402917861938,0.5510402917861938,0.0,108.0
Anger,stimuli/10F_AN_O.BMP,stimuli/10F_AN_O.BMP,stimuli/11F_AN_O.BMP,stimuli/EmptyFrame.bmp,stimuli/RedFrame.bmp,1,Anger,Female,3,1,1.0,452.9990234375,452.9990234375,0.0,456.978271484375,456.978271484375,0.0,455.9959716796875,455.9959716796875,0.0,1.0,1.0,0.0,'1',0.603845477104187,0.603845477104187,0.0,109.0

extraInfo
participant,sub002
session,002
date,2025_May_08_0942
expName,HaririTask_Ver2
psychopyVersion,3.0.1
frameRate,None
