TrialType,Top,Left,Right,EmptyFrame,SelectedFrame,Correct,Emotion,Gender,TrialLength,FixationLength,n,GCFaceStartTime_mean,GCFaceStartTime_raw,GCFaceStartTime_std,GCPostFaceFixationEndTime_mean,GCPostFaceFixationEndTime_raw,GCPostFaceFixationEndTime_std,GCPostFaceFixationStartTime_mean,GCPostFaceFixationStartTime_raw,GCPostFaceFixationStartTime_std,key_resp_trial.corr_mean,key_resp_trial.corr_raw,key_resp_trial.corr_std,key_resp_trial.keys_raw,key_resp_trial.rt_mean,key_resp_trial.rt_raw,key_resp_trial.rt_std,order
MatchFaces,stimuli/MatchFaces.bmp,stimuli/EmptyFace.bmp,stimuli/EmptyFace.bmp,stimuli/EmptyFrame.bmp,stimuli/EmptyFrame.bmp,Null,None,None,3,1,1.0,15.249105453491211,15.249105453491211,0.0,19.052202224731445,19.052202224731445,0.0,18.06192398071289,18.06192398071289,0.0,0.0,0.0,0.0,,,,,0.0
Fear,stimuli/23M_FE_O.BMP,stimuli/23M_FE_O.BMP,stimuli/24M_FE_O.BMP,stimuli/EmptyFrame.bmp,stimuli/RedFrame.bmp,1,Fear,Male,3,1,1.0,19.203588485717773,19.203588485717773,0.0,23.068889617919922,23.068889617919922,0.0,22.08368682861328,22.08368682861328,0.0,1.0,1.0,0.0,'1',1.6763252019882202,1.6763252019882202,0.0,1.0
Fear,stimuli/19F_FE_O.BMP,stimuli/18F_FE_O.BMP,stimuli/19F_FE_O.BMP,stimuli/EmptyFrame.bmp,stimuli/RedFrame.bmp,2,Fear,Female,3,1,1.0,23.097911834716797,23.097911834716797,0.0,27.079648971557617,27.079648971557617,0.0,26.10370635986328,26.10370635986328,0.0,1.0,1.0,0.0,'2',1.262689471244812,1.262689471244812,0.0,2.0
Fear,stimuli/17F_FE_O.BMP,stimuli/17F_FE_O.BMP,stimuli/16F_FE_O.BMP,stimuli/EmptyFrame.bmp,stimuli/RedFrame.bmp,1,Fear,Female,3,1,1.0,27.111909866333008,27.111909866333008,0.0,31.091190338134766,31.091190338134766,0.0,30.110950469970703,30.110950469970703,0.0,1.0,1.0,0.0,'1',1.218277931213379,1.218277931213379,0.0,3.0
Fear,stimuli/21M_FE_O.BMP,stimuli/21M_FE_O.BMP,stimuli/22M_FE_O.BMP,stimuli/EmptyFrame.bmp,stimuli/RedFrame.bmp,1,Fear,Male,3,1,1.0,31.115758895874023,31.115758895874023,0.0,35.104496002197266,35.104496002197266,0.0,34.117271423339844,34.117271423339844,0.0,1.0,1.0,0.0,'1',1.480394959449768,1.480394959449768,0.0,4.0
Fear,stimuli/09F_FE_O.BMP,stimuli/07F_FE_O.BMP,stimuli/09F_FE_O.BMP,stimuli/EmptyFrame.bmp,stimuli/RedFrame.bmp,2,Fear,Female,3,1,1.0,35.13262176513672,35.13262176513672,0.0,39.12070846557617,39.12070846557617,0.0,38.139122009277344,38.139122009277344,0.0,1.0,1.0,0.0,'2',1.2779022455215454,1.2779022455215454,0.0,5.0
Fear,stimuli/08F_FE_O.BMP,stimuli/13F_FE_O.BMP,stimuli/08F_FE_O.BMP,stimuli/EmptyFrame.bmp,stimuli/RedFrame.bmp,2,Fear,Female,3,1,1.0,39.146514892578125,39.146514892578125,0.0,43.13504409790039,43.13504409790039,0.0,42.15090560913086,42.15090560913086,0.0,1.0,1.0,0.0,'2',1.1535383462905884,1.1535383462905884,0.0,6.0
Fear,stimuli/07F_FE_O.BMP,stimuli/07F_FE_O.BMP,stimuli/14F_FE_O.BMP,stimuli/EmptyFrame.bmp,stimuli/RedFrame.bmp,1,Fear,Female,3,1,1.0,43.16999053955078,43.16999053955078,0.0,47.15690612792969,47.15690612792969,0.0,46.15762710571289,46.15762710571289,0.0,1.0,1.0,0.0,'1',1.0428141355514526,1.0428141355514526,0.0,7.0
Fear,stimuli/26M_FE_O.BMP,stimuli/26M_FE_O.BMP,stimuli/28M_FE_O.BMP,stimuli/EmptyFrame.bmp,stimuli/RedFrame.bmp,1,Fear,Male,3,1,1.0,47.18476867675781,47.18476867675781,0.0,51.178253173828125,51.178253173828125,0.0,50.178855895996094,50.178855895996094,0.0,1.0,1.0,0.0,'1',1.1697582006454468,1.1697582006454468,0.0,8.0
Fear,stimuli/10F_FE_O.BMP,stimuli/11F_FE_O.BMP,stimuli/10F_FE_O.BMP,stimuli/EmptyFrame.bmp,stimuli/RedFrame.bmp,2,Fear,Female,3,1,1.0,51.210853576660156,51.210853576660156,0.0,55.19824981689453,55.19824981689453,0.0,54.20827865600586,54.20827865600586,0.0,1.0,1.0,0.0,'2',0.9519703984260559,0.9519703984260559,0.0,9.0
Fear,stimuli/29M_FE_O.BMP,stimuli/30M_FE_O.BMP,stimuli/29M_FE_O.BMP,stimuli/EmptyFrame.bmp,stimuli/RedFrame.bmp,2,Fear,Male,3,1,1.0,55.2271614074707,55.2271614074707,0.0,59.21702194213867,59.21702194213867,0.0,58.22915267944336,58.22915267944336,0.0,1.0,1.0,0.0,'2',1.4270856380462646,1.4270856380462646,0.0,10.0
MatchFaces,stimuli/MatchFaces.bmp,stimuli/EmptyFace.bmp,stimuli/EmptyFace.bmp,stimuli/EmptyFrame.bmp,stimuli/EmptyFrame.bmp,Null,None,None,3,1,1.0,59.425140380859375,59.425140380859375,0.0,63.22883224487305,63.22883224487305,0.0,62.23469924926758,62.23469924926758,0.0,0.0,0.0,0.0,,,,,11.0
Neutral,stimuli/07F_NE_C.BMP,stimuli/07F_NE_C.BMP,stimuli/14F_NE_C.BMP,stimuli/EmptyFrame.bmp,stimuli/RedFrame.bmp,1,Neutral,Female,3,1,1.0,63.2742919921875,63.2742919921875,0.0,67.24595642089844,67.24595642089844,0.0,66.25978088378906,66.25978088378906,0.0,1.0,1.0,0.0,'1',0.9978498220443726,0.9978498220443726,0.0,12.0
Neutral,stimuli/25M_NE_C.BMP,stimuli/29M_NE_C.BMP,stimuli/25M_NE_C.BMP,stimuli/EmptyFrame.bmp,stimuli/RedFrame.bmp,2,Neutral,Male,3,1,1.0,67.27096557617188,67.27096557617188,0.0,71.26509094238281,71.26509094238281,0.0,70.2701644897461,70.2701644897461,0.0,1.0,1.0,0.0,'2',0.7571120858192444,0.7571120858192444,0.0,13.0
Neutral,stimuli/26M_NE_C.BMP,stimuli/26M_NE_C.BMP,stimuli/28M_NE_C.BMP,stimuli/EmptyFrame.bmp,stimuli/RedFrame.bmp,1,Neutral,Male,3,1,1.0,71.29026794433594,71.29026794433594,0.0,75.27550506591797,75.27550506591797,0.0,74.29375457763672,74.29375457763672,0.0,1.0,1.0,0.0,'1',0.7746554017066956,0.7746554017066956,0.0,14.0
Neutral,stimuli/08F_NE_C.BMP,stimuli/13F_NE_C.BMP,stimuli/08F_NE_C.BMP,stimuli/EmptyFrame.bmp,stimuli/RedFrame.bmp,2,Neutral,Female,3,1,1.0,75.2991714477539,75.2991714477539,0.0,79.29376220703125,79.29376220703125,0.0,78.30502319335938,78.30502319335938,0.0,1.0,1.0,0.0,'2',1.121993064880371,1.121993064880371,0.0,15.0
Neutral,stimuli/09F_NE_C.BMP,stimuli/09F_NE_C.BMP,stimuli/12F_NE_C.BMP,stimuli/EmptyFrame.bmp,stimuli/RedFrame.bmp,1,Neutral,Female,3,1,1.0,79.3213119506836,79.3213119506836,0.0,83.31124877929688,83.31124877929688,0.0,82.31692504882812,82.31692504882812,0.0,1.0,1.0,0.0,'1',0.8559709787368774,0.8559709787368774,0.0,16.0
Neutral,stimuli/27M_NE_C.BMP,stimuli/26M_NE_C.BMP,stimuli/27M_NE_C.BMP,stimuli/EmptyFrame.bmp,stimuli/RedFrame.bmp,2,Neutral,Male,3,1,1.0,83.33457946777344,83.33457946777344,0.0,87.32695007324219,87.32695007324219,0.0,86.3416519165039,86.3416519165039,0.0,1.0,1.0,0.0,'2',0.9086583852767944,0.9086583852767944,0.0,17.0
Neutral,stimuli/28M_NE_C.BMP,stimuli/28M_NE_C.BMP,stimuli/25M_NE_C.BMP,stimuli/EmptyFrame.bmp,stimuli/RedFrame.bmp,1,Neutral,Male,3,1,1.0,87.348388671875,87.348388671875,0.0,91.34835052490234,91.34835052490234,0.0,90.35671997070312,90.35671997070312,0.0,1.0,1.0,0.0,'1',1.563801646232605,1.563801646232605,0.0,18.0
Neutral,stimuli/10F_NE_C.BMP,stimuli/11F_NE_C.BMP,stimuli/10F_NE_C.BMP,stimuli/EmptyFrame.bmp,stimuli/RedFrame.bmp,2,Neutral,Female,3,1,1.0,91.37568664550781,91.37568664550781,0.0,95.36859893798828,95.36859893798828,0.0,94.38040924072266,94.38040924072266,0.0,1.0,1.0,0.0,'2',0.8015357255935669,0.8015357255935669,0.0,19.0
Neutral,stimuli/29M_NE_C.BMP,stimuli/29M_NE_C.BMP,stimuli/24M_NE_C.BMP,stimuli/EmptyFrame.bmp,stimuli/RedFrame.bmp,1,Neutral,Male,3,1,1.0,95.4013442993164,95.4013442993164,0.0,99.38530731201172,99.38530731201172,0.0,98.39464569091797,98.39464569091797,0.0,1.0,1.0,0.0,'1',1.432297945022583,1.432297945022583,0.0,20.0
Neutral,stimuli/11F_NE_C.BMP,stimuli/10F_NE_C.BMP,stimuli/11F_NE_C.BMP,stimuli/EmptyFrame.bmp,stimuli/RedFrame.bmp,2,Neutral,Female,3,1,1.0,99.4093017578125,99.4093017578125,0.0,103.40608978271484,103.40608978271484,0.0,102.41000366210938,102.41000366210938,0.0,1.0,1.0,0.0,'2',0.7776330709457397,0.7776330709457397,0.0,21.0
MatchShape,stimuli/MatchShapes.bmp,stimuli/EmptyFace.bmp,stimuli/EmptyFace.bmp,stimuli/EmptyFrame.bmp,stimuli/EmptyFrame.bmp,Null,None,None,3,1,1.0,103.43394470214844,103.43394470214844,0.0,107.41504669189453,107.41504669189453,0.0,106.42082214355469,106.42082214355469,0.0,0.0,0.0,0.0,,,,,22.0
Shape,stimuli/circle.bmp,stimuli/vertical.bmp,stimuli/circle.bmp,stimuli/EmptyFrame.bmp,stimuli/RedFrame.bmp,2,Shape,None,3,1,1.0,107.4544906616211,107.4544906616211,0.0,111.42876434326172,111.42876434326172,0.0,110.43962097167969,110.43962097167969,0.0,1.0,1.0,0.0,'2',0.690666913986206,0.690666913986206,0.0,23.0
Shape,stimuli/horizontal.bmp,stimuli/circle.bmp,stimuli/horizontal.bmp,stimuli/EmptyFrame.bmp,stimuli/RedFrame.bmp,2,Shape,None,3,1,1.0,111.45254516601562,111.45254516601562,0.0,115.43754577636719,115.43754577636719,0.0,114.45791625976562,114.45791625976562,0.0,1.0,1.0,0.0,'2',0.8956624865531921,0.8956624865531921,0.0,24.0
Shape,stimuli/circle.bmp,stimuli/vertical.bmp,stimuli/circle.bmp,stimuli/EmptyFrame.bmp,stimuli/RedFrame.bmp,2,Shape,None,3,1,1.0,115.45808410644531,115.45808410644531,0.0,119.4488754272461,119.4488754272461,0.0,118.45893859863281,118.45893859863281,0.0,1.0,1.0,0.0,'2',0.8469713926315308,0.8469713926315308,0.0,25.0
Shape,stimuli/vertical.bmp,stimuli/circle.bmp,stimuli/vertical.bmp,stimuli/EmptyFrame.bmp,stimuli/RedFrame.bmp,2,Shape,None,3,1,1.0,119.47219848632812,119.47219848632812,0.0,123.46572875976562,123.46572875976562,0.0,122.47791290283203,122.47791290283203,0.0,1.0,1.0,0.0,'2',1.0904051065444946,1.0904051065444946,0.0,26.0
Shape,stimuli/vertical.bmp,stimuli/horizontal.bmp,stimuli/vertical.bmp,stimuli/EmptyFrame.bmp,stimuli/RedFrame.bmp,2,Shape,None,3,1,1.0,123.48927307128906,123.48927307128906,0.0,127.47806549072266,127.47806549072266,0.0,126.48568725585938,126.48568725585938,0.0,1.0,1.0,0.0,'2',1.6718802452087402,1.6718802452087402,0.0,27.0
Shape,stimuli/horizontal.bmp,stimuli/horizontal.bmp,stimuli/vertical.bmp,stimuli/EmptyFrame.bmp,stimuli/RedFrame.bmp,1,Shape,None,3,1,1.0,127.50428009033203,127.50428009033203,0.0,131.48672485351562,131.48672485351562,0.0,130.49798583984375,130.49798583984375,0.0,1.0,1.0,0.0,'1',1.392020344734192,1.392020344734192,0.0,28.0
Shape,stimuli/horizontal.bmp,stimuli/circle.bmp,stimuli/horizontal.bmp,stimuli/EmptyFrame.bmp,stimuli/RedFrame.bmp,2,Shape,None,3,1,1.0,131.50961303710938,131.50961303710938,0.0,135.50430297851562,135.50430297851562,0.0,134.51385498046875,134.51385498046875,0.0,1.0,1.0,0.0,'2',0.8285335898399353,0.8285335898399353,0.0,29.0
Shape,stimuli/circle.bmp,stimuli/circle.bmp,stimuli/vertical.bmp,stimuli/EmptyFrame.bmp,stimuli/RedFrame.bmp,1,Shape,None,3,1,1.0,135.52647399902344,135.52647399902344,0.0,139.52088928222656,139.52088928222656,0.0,138.52890014648438,138.52890014648438,0.0,1.0,1.0,0.0,'1',0.7565087080001831,0.7565087080001831,0.0,30.0
Shape,stimuli/vertical.bmp,stimuli/horizontal.bmp,stimuli/vertical.bmp,stimuli/EmptyFrame.bmp,stimuli/RedFrame.bmp,2,Shape,None,3,1,1.0,139.54379272460938,139.54379272460938,0.0,143.54299926757812,143.54299926757812,0.0,142.54901123046875,142.54901123046875,0.0,1.0,1.0,0.0,'2',1.152300477027893,1.152300477027893,0.0,31.0
Shape,stimuli/vertical.bmp,stimuli/vertical.bmp,stimuli/horizontal.bmp,stimuli/EmptyFrame.bmp,stimuli/RedFrame.bmp,1,Shape,None,3,1,1.0,143.56468200683594,143.56468200683594,0.0,147.56121826171875,147.56121826171875,0.0,146.56480407714844,146.56480407714844,0.0,1.0,1.0,0.0,'1',1.1720449924468994,1.1720449924468994,0.0,32.0
MatchFaces,stimuli/MatchFaces.bmp,stimuli/EmptyFace.bmp,stimuli/EmptyFace.bmp,stimuli/EmptyFrame.bmp,stimuli/EmptyFrame.bmp,Null,None,None,3,1,1.0,147.74581909179688,147.74581909179688,0.0,151.57118225097656,151.57118225097656,0.0,150.57887268066406,150.57887268066406,0.0,0.0,0.0,0.0,,,,,33.0
Anger,stimuli/20M_AN_O.BMP,stimuli/34M_AN_O.BMP,stimuli/20M_AN_O.BMP,stimuli/EmptyFrame.bmp,stimuli/RedFrame.bmp,2,Anger,Male,3,1,1.0,151.65245056152344,151.65245056152344,0.0,155.58749389648438,155.58749389648438,0.0,154.6028594970703,154.6028594970703,0.0,1.0,1.0,0.0,'2',0.9123914241790771,0.9123914241790771,0.0,34.0
Anger,stimuli/01F_AN_O.bmp,stimuli/19F_AN_O.BMP,stimuli/01F_AN_O.bmp,stimuli/EmptyFrame.bmp,stimuli/RedFrame.bmp,2,Anger,Female,3,1,1.0,155.61585998535156,155.61585998535156,0.0,159.6065673828125,159.6065673828125,0.0,158.61981201171875,158.61981201171875,0.0,1.0,1.0,0.0,'2',1.0050698518753052,1.0050698518753052,0.0,35.0
Anger,stimuli/06F_AN_O.bmp,stimuli/15F_AN_O.BMP,stimuli/06F_AN_O.bmp,stimuli/EmptyFrame.bmp,stimuli/RedFrame.bmp,2,Anger,Female,3,1,1.0,159.63475036621094,159.63475036621094,0.0,163.61598205566406,163.61598205566406,0.0,162.6317901611328,162.6317901611328,0.0,1.0,1.0,0.0,'2',1.002893328666687,1.002893328666687,0.0,36.0
Anger,stimuli/42M_AN_O.BMP,stimuli/42M_AN_O.BMP,stimuli/43M_AN_O.BMP,stimuli/EmptyFrame.bmp,stimuli/RedFrame.bmp,1,Anger,Male,3,1,1.0,163.64471435546875,163.64471435546875,0.0,167.63258361816406,167.63258361816406,0.0,166.65444946289062,166.65444946289062,0.0,1.0,1.0,0.0,'1',1.0196517705917358,1.0196517705917358,0.0,37.0
Anger,stimuli/40M_AN_O.BMP,stimuli/41M_AN_O.BMP,stimuli/40M_AN_O.BMP,stimuli/EmptyFrame.bmp,stimuli/RedFrame.bmp,2,Anger,Male,3,1,1.0,167.66000366210938,167.66000366210938,0.0,171.64300537109375,171.64300537109375,0.0,170.66159057617188,170.66159057617188,0.0,1.0,1.0,0.0,'2',0.7104712128639221,0.7104712128639221,0.0,38.0
Anger,stimuli/08F_AN_O.BMP,stimuli/08F_AN_O.BMP,stimuli/13F_AN_O.BMP,stimuli/EmptyFrame.bmp,stimuli/RedFrame.bmp,1,Anger,Female,3,1,1.0,171.66778564453125,171.66778564453125,0.0,175.65476989746094,175.65476989746094,0.0,174.6748809814453,174.6748809814453,0.0,1.0,1.0,0.0,'1',0.9761204123497009,0.9761204123497009,0.0,39.0
Anger,stimuli/09F_AN_O.BMP,stimuli/12F_AN_O.BMP,stimuli/09F_AN_O.BMP,stimuli/EmptyFrame.bmp,stimuli/RedFrame.bmp,2,Anger,Female,3,1,1.0,175.6824951171875,175.6824951171875,0.0,179.6675567626953,179.6675567626953,0.0,178.6822967529297,178.6822967529297,0.0,1.0,1.0,0.0,'2',0.8546226024627686,0.8546226024627686,0.0,40.0
Anger,stimuli/34M_AN_O.BMP,stimuli/35M_AN_O.BMP,stimuli/34M_AN_O.BMP,stimuli/EmptyFrame.bmp,stimuli/RedFrame.bmp,2,Anger,Male,3,1,1.0,179.6931915283203,179.6931915283203,0.0,183.67642211914062,183.67642211914062,0.0,182.69557189941406,182.69557189941406,0.0,1.0,1.0,0.0,'2',0.6403563022613525,0.6403563022613525,0.0,41.0
Anger,stimuli/24M_AN_O.BMP,stimuli/24M_AN_O.BMP,stimuli/30M_AN_O.BMP,stimuli/EmptyFrame.bmp,stimuli/RedFrame.bmp,1,Anger,Male,3,1,1.0,183.70333862304688,183.70333862304688,0.0,187.68466186523438,187.68466186523438,0.0,186.70947265625,186.70947265625,0.0,1.0,1.0,0.0,'1',1.0325144529342651,1.0325144529342651,0.0,42.0
Anger,stimuli/03F_AN_O.bmp,stimuli/03F_AN_O.bmp,stimuli/17F_AN_O.BMP,stimuli/EmptyFrame.bmp,stimuli/RedFrame.bmp,1,Anger,Female,3,1,1.0,187.71580505371094,187.71580505371094,0.0,191.69664001464844,191.69664001464844,0.0,190.71664428710938,190.71664428710938,0.0,1.0,1.0,0.0,'1',0.8156753778457642,0.8156753778457642,0.0,43.0
MatchFaces,stimuli/MatchFaces.bmp,stimuli/EmptyFace.bmp,stimuli/EmptyFace.bmp,stimuli/EmptyFrame.bmp,stimuli/EmptyFrame.bmp,Null,None,None,3,1,1.0,191.86526489257812,191.86526489257812,0.0,195.70953369140625,195.70953369140625,0.0,194.70236206054688,194.70236206054688,0.0,0.0,0.0,0.0,,,,,44.0
Happy,stimuli/06F_HA_O.bmp,stimuli/07F_HA_O.BMP,stimuli/06F_HA_O.bmp,stimuli/EmptyFrame.bmp,stimuli/RedFrame.bmp,2,Happy,Female,3,1,1.0,195.80899047851562,195.80899047851562,0.0,199.7366943359375,199.7366943359375,0.0,198.73757934570312,198.73757934570312,0.0,1.0,1.0,0.0,'2',0.724810779094696,0.724810779094696,0.0,45.0
Happy,stimuli/13F_HA_O.BMP,stimuli/13F_HA_O.BMP,stimuli/12F_HA_O.BMP,stimuli/EmptyFrame.bmp,stimuli/RedFrame.bmp,1,Happy,Female,3,1,1.0,199.78077697753906,199.78077697753906,0.0,203.7524871826172,203.7524871826172,0.0,202.77035522460938,202.77035522460938,0.0,1.0,1.0,0.0,'1',0.7501127123832703,0.7501127123832703,0.0,46.0
Happy,stimuli/41M_HA_O.BMP,stimuli/41M_HA_O.BMP,stimuli/40M_HA_O.BMP,stimuli/EmptyFrame.bmp,stimuli/RedFrame.bmp,1,Happy,Male,3,1,1.0,203.7782745361328,203.7782745361328,0.0,207.76980590820312,207.76980590820312,0.0,206.77859497070312,206.77859497070312,0.0,1.0,1.0,0.0,'1',0.7381641864776611,0.7381641864776611,0.0,47.0
Happy,stimuli/03F_HA_O.bmp,stimuli/05F_HA_O.bmp,stimuli/03F_HA_O.bmp,stimuli/EmptyFrame.bmp,stimuli/RedFrame.bmp,2,Happy,Female,3,1,1.0,207.79934692382812,207.79934692382812,0.0,211.78280639648438,211.78280639648438,0.0,210.7965850830078,210.7965850830078,0.0,1.0,1.0,0.0,'2',0.6871494054794312,0.6871494054794312,0.0,48.0
Happy,stimuli/24M_HA_O.BMP,stimuli/24M_HA_O.BMP,stimuli/25M_HA_O.BMP,stimuli/EmptyFrame.bmp,stimuli/RedFrame.bmp,1,Happy,Male,3,1,1.0,211.81158447265625,211.81158447265625,0.0,215.79698181152344,215.79698181152344,0.0,214.8040771484375,214.8040771484375,0.0,1.0,1.0,0.0,'1',0.7998124957084656,0.7998124957084656,0.0,49.0
Happy,stimuli/19F_HA_O.BMP,stimuli/19F_HA_O.BMP,stimuli/18F_HA_O.BMP,stimuli/EmptyFrame.bmp,stimuli/RedFrame.bmp,1,Happy,Female,3,1,1.0,215.82400512695312,215.82400512695312,0.0,219.8085174560547,219.8085174560547,0.0,218.82728576660156,218.82728576660156,0.0,1.0,1.0,0.0,'1',0.9140599966049194,0.9140599966049194,0.0,50.0
Happy,stimuli/01F_HA_O.bmp,stimuli/01F_HA_O.bmp,stimuli/02F_HA_O.bmp,stimuli/EmptyFrame.bmp,stimuli/RedFrame.bmp,1,Happy,Female,3,1,1.0,219.8378143310547,219.8378143310547,0.0,223.8258819580078,223.8258819580078,0.0,222.83949279785156,222.83949279785156,0.0,1.0,1.0,0.0,'1',0.7251130938529968,0.7251130938529968,0.0,51.0
Happy,stimuli/22M_HA_O.BMP,stimuli/23M_HA_O.BMP,stimuli/22M_HA_O.BMP,stimuli/EmptyFrame.bmp,stimuli/RedFrame.bmp,2,Happy,Male,3,1,1.0,223.85157775878906,223.85157775878906,0.0,227.8435821533203,227.8435821533203,0.0,226.85508728027344,226.85508728027344,0.0,1.0,1.0,0.0,'2',0.8180758953094482,0.8180758953094482,0.0,52.0
Happy,stimuli/35M_HA_O.BMP,stimuli/34M_HA_O.BMP,stimuli/35M_HA_O.BMP,stimuli/EmptyFrame.bmp,stimuli/RedFrame.bmp,2,Happy,Male,3,1,1.0,227.87245178222656,227.87245178222656,0.0,231.862548828125,231.862548828125,0.0,230.8710174560547,230.8710174560547,0.0,1.0,1.0,0.0,'2',1.0972037315368652,1.0972037315368652,0.0,53.0
Happy,stimuli/39M_HA_O.BMP,stimuli/38M_HA_O.BMP,stimuli/39M_HA_O.BMP,stimuli/EmptyFrame.bmp,stimuli/RedFrame.bmp,2,Happy,Male,3,1,1.0,231.9246368408203,231.9246368408203,0.0,235.87188720703125,235.87188720703125,0.0,234.8895721435547,234.8895721435547,0.0,1.0,1.0,0.0,'2',0.8596127033233643,0.8596127033233643,0.0,54.0
Match Shape,stimuli/MatchShapes.bmp,stimuli/EmptyFace.bmp,stimuli/EmptyFace.bmp,stimuli/EmptyFrame.bmp,stimuli/EmptyFrame.bmp,Null,None,None,3,1,1.0,235.89585876464844,235.89585876464844,0.0,239.87745666503906,239.87745666503906,0.0,238.88595581054688,238.88595581054688,0.0,0.0,0.0,0.0,,,,,55.0
Shape,stimuli/horizontal.bmp,stimuli/horizontal.bmp,stimuli/vertical.bmp,stimuli/EmptyFrame.bmp,stimuli/RedFrame.bmp,1,Shape,None,3,1,1.0,239.913818359375,239.913818359375,0.0,243.89739990234375,243.89739990234375,0.0,242.90711975097656,242.90711975097656,0.0,1.0,1.0,0.0,'1',1.4175782203674316,1.4175782203674316,0.0,56.0
Shape,stimuli/horizontal.bmp,stimuli/horizontal.bmp,stimuli/circle.bmp,stimuli/EmptyFrame.bmp,stimuli/RedFrame.bmp,1,Shape,None,3,1,1.0,243.9202117919922,243.9202117919922,0.0,247.90895080566406,247.90895080566406,0.0,246.91770935058594,246.91770935058594,0.0,1.0,1.0,0.0,'1',0.7116903066635132,0.7116903066635132,0.0,57.0
Shape,stimuli/circle.bmp,stimuli/vertical.bmp,stimuli/circle.bmp,stimuli/EmptyFrame.bmp,stimuli/RedFrame.bmp,2,Shape,None,3,1,1.0,247.9386444091797,247.9386444091797,0.0,251.92132568359375,251.92132568359375,0.0,250.93540954589844,250.93540954589844,0.0,1.0,1.0,0.0,'2',0.6264554858207703,0.6264554858207703,0.0,58.0
Shape,stimuli/vertical.bmp,stimuli/vertical.bmp,stimuli/circle.bmp,stimuli/EmptyFrame.bmp,stimuli/RedFrame.bmp,1,Shape,None,3,1,1.0,251.9422149658203,251.9422149658203,0.0,255.9399871826172,255.9399871826172,0.0,254.94940185546875,254.94940185546875,0.0,1.0,1.0,0.0,'1',0.8030030727386475,0.8030030727386475,0.0,59.0
Shape,stimuli/horizontal.bmp,stimuli/horizontal.bmp,stimuli/circle.bmp,stimuli/EmptyFrame.bmp,stimuli/RedFrame.bmp,1,Shape,None,3,1,1.0,255.9665985107422,255.9665985107422,0.0,259.95849609375,259.95849609375,0.0,258.9627380371094,258.9627380371094,0.0,1.0,1.0,0.0,'1',0.7440016269683838,0.7440016269683838,0.0,60.0
Shape,stimuli/vertical.bmp,stimuli/vertical.bmp,stimuli/circle.bmp,stimuli/EmptyFrame.bmp,stimuli/RedFrame.bmp,1,Shape,None,3,1,1.0,259.9822082519531,259.9822082519531,0.0,263.9681701660156,263.9681701660156,0.0,262.9857482910156,262.9857482910156,0.0,1.0,1.0,0.0,'1',0.6545668840408325,0.6545668840408325,0.0,61.0
Shape,stimuli/horizontal.bmp,stimuli/circle.bmp,stimuli/horizontal.bmp,stimuli/EmptyFrame.bmp,stimuli/RedFrame.bmp,2,Shape,None,3,1,1.0,263.9906311035156,263.9906311035156,0.0,267.9855651855469,267.9855651855469,0.0,267.0054626464844,267.0054626464844,0.0,1.0,1.0,0.0,'2',0.6571515202522278,0.6571515202522278,0.0,62.0
Shape,stimuli/circle.bmp,stimuli/circle.bmp,stimuli/horizontal.bmp,stimuli/EmptyFrame.bmp,stimuli/RedFrame.bmp,1,Shape,None,3,1,1.0,268.0096435546875,268.0096435546875,0.0,271.9991149902344,271.9991149902344,0.0,271.014892578125,271.014892578125,0.0,1.0,1.0,0.0,'1',0.7349523901939392,0.7349523901939392,0.0,63.0
Shape,stimuli/circle.bmp,stimuli/horizontal.bmp,stimuli/circle.bmp,stimuli/EmptyFrame.bmp,stimuli/RedFrame.bmp,2,Shape,None,3,1,1.0,272.0220947265625,272.0220947265625,0.0,276.01416015625,276.01416015625,0.0,275.0211486816406,275.0211486816406,0.0,1.0,1.0,0.0,'2',0.7457247972488403,0.7457247972488403,0.0,64.0
Shape,stimuli/vertical.bmp,stimuli/vertical.bmp,stimuli/horizontal.bmp,stimuli/EmptyFrame.bmp,stimuli/RedFrame.bmp,1,Shape,None,3,1,1.0,276.0371398925781,276.0371398925781,0.0,280.031494140625,280.031494140625,0.0,279.0454406738281,279.0454406738281,0.0,1.0,1.0,0.0,'1',0.725666880607605,0.725666880607605,0.0,65.0
MatchFaces,stimuli/MatchFaces.bmp,stimuli/EmptyFace.bmp,stimuli/EmptyFace.bmp,stimuli/EmptyFrame.bmp,stimuli/EmptyFrame.bmp,Null,None,None,3,1,1.0,280.205078125,280.205078125,0.0,284.0408935546875,284.0408935546875,0.0,283.03948974609375,283.03948974609375,0.0,0.0,0.0,0.0,,,,,66.0
Neutral,stimuli/20M_NE_C.BMP,stimuli/21M_NE_C.BMP,stimuli/20M_NE_C.BMP,stimuli/EmptyFrame.bmp,stimuli/RedFrame.bmp,2,Neutral,Male,3,1,1.0,284.10565185546875,284.10565185546875,0.0,288.05133056640625,288.05133056640625,0.0,287.0662841796875,287.0662841796875,0.0,1.0,1.0,0.0,'2',1.5582915544509888,1.5582915544509888,0.0,67.0
Neutral,stimuli/01F_NE_C.bmp,stimuli/01F_NE_C.bmp,stimuli/02F_NE_C.bmp,stimuli/EmptyFrame.bmp,stimuli/RedFrame.bmp,1,Neutral,Female,3,1,1.0,288.082275390625,288.082275390625,0.0,292.07159423828125,292.07159423828125,0.0,291.0732421875,291.0732421875,0.0,1.0,1.0,0.0,'1',0.7313411831855774,0.7313411831855774,0.0,68.0
Neutral,stimuli/22M_NE_C.BMP,stimuli/23M_NE_C.BMP,stimuli/22M_NE_C.BMP,stimuli/EmptyFrame.bmp,stimuli/RedFrame.bmp,2,Neutral,Male,3,1,1.0,292.0975341796875,292.0975341796875,0.0,296.08428955078125,296.08428955078125,0.0,295.1041564941406,295.1041564941406,0.0,1.0,1.0,0.0,'2',1.1749159097671509,1.1749159097671509,0.0,69.0
Neutral,stimuli/24M_NE_C.BMP,stimuli/24M_NE_C.BMP,stimuli/25M_NE_C.BMP,stimuli/EmptyFrame.bmp,stimuli/RedFrame.bmp,1,Neutral,Male,3,1,1.0,296.1085510253906,296.1085510253906,0.0,300.1092834472656,300.1092834472656,0.0,299.117431640625,299.117431640625,0.0,1.0,1.0,0.0,'1',1.1924365758895874,1.1924365758895874,0.0,70.0
Neutral,stimuli/03F_NE_C.bmp,stimuli/05F_NE_C.bmp,stimuli/03F_NE_C.bmp,stimuli/EmptyFrame.bmp,stimuli/RedFrame.bmp,2,Neutral,Female,3,1,1.0,300.1716613769531,300.1716613769531,0.0,304.12713623046875,304.12713623046875,0.0,303.12786865234375,303.12786865234375,0.0,1.0,1.0,0.0,'2',1.0564128160476685,1.0564128160476685,0.0,71.0
Neutral,stimuli/26M_NE_C.BMP,stimuli/26M_NE_C.BMP,stimuli/27M_NE_C.BMP,stimuli/EmptyFrame.bmp,stimuli/RedFrame.bmp,1,Neutral,Male,3,1,1.0,304.1514587402344,304.1514587402344,0.0,308.1429138183594,308.1429138183594,0.0,307.1513671875,307.1513671875,0.0,1.0,1.0,0.0,'1',0.8633092045783997,0.8633092045783997,0.0,72.0
Neutral,stimuli/06F_NE_C.bmp,stimuli/07F_NE_C.BMP,stimuli/06F_NE_C.bmp,stimuli/EmptyFrame.bmp,stimuli/RedFrame.bmp,2,Neutral,Female,3,1,1.0,308.1686096191406,308.1686096191406,0.0,312.16375732421875,312.16375732421875,0.0,311.16644287109375,311.16644287109375,0.0,1.0,1.0,0.0,'2',0.7505953907966614,0.7505953907966614,0.0,73.0
Neutral,stimuli/08F_NE_C.BMP,stimuli/08F_NE_C.BMP,stimuli/09F_NE_C.BMP,stimuli/EmptyFrame.bmp,stimuli/RedFrame.bmp,1,Neutral,Female,3,1,1.0,312.18609619140625,312.18609619140625,0.0,316.1733093261719,316.1733093261719,0.0,315.1922607421875,315.1922607421875,0.0,1.0,1.0,0.0,'1',0.7594072222709656,0.7594072222709656,0.0,74.0
Neutral,stimuli/28M_NE_C.BMP,stimuli/29M_NE_C.BMP,stimuli/28M_NE_C.BMP,stimuli/EmptyFrame.bmp,stimuli/RedFrame.bmp,2,Neutral,Male,3,1,1.0,316.1951904296875,316.1951904296875,0.0,320.1915588378906,320.1915588378906,0.0,319.1993408203125,319.1993408203125,0.0,1.0,1.0,0.0,'2',0.6800503730773926,0.6800503730773926,0.0,75.0
Neutral,stimuli/10F_NE_C.BMP,stimuli/10F_NE_C.BMP,stimuli/06F_NE_C.bmp,stimuli/EmptyFrame.bmp,stimuli/RedFrame.bmp,1,Neutral,Female,3,1,1.0,320.2154235839844,320.2154235839844,0.0,324.21185302734375,324.21185302734375,0.0,323.2159729003906,323.2159729003906,0.0,1.0,1.0,0.0,'1',0.7024939060211182,0.7024939060211182,0.0,76.0
MatchFaces,stimuli/MatchFaces.bmp,stimuli/EmptyFace.bmp,stimuli/EmptyFace.bmp,stimuli/EmptyFrame.bmp,stimuli/EmptyFrame.bmp,Null,None,None,3,1,1.0,324.40887451171875,324.40887451171875,0.0,328.21661376953125,328.21661376953125,0.0,327.22991943359375,327.22991943359375,0.0,0.0,0.0,0.0,,,,,77.0
Happy,stimuli/28M_HA_O.BMP,stimuli/29M_HA_O.BMP,stimuli/28M_HA_O.BMP,stimuli/EmptyFrame.bmp,stimuli/RedFrame.bmp,2,Happy,Male,3,1,1.0,328.273681640625,328.273681640625,0.0,332.2289733886719,332.2289733886719,0.0,331.2389831542969,331.2389831542969,0.0,1.0,1.0,0.0,'2',1.5089547634124756,1.5089547634124756,0.0,78.0
Happy,stimuli/10F_HA_O.BMP,stimuli/10F_HA_O.BMP,stimuli/06F_HA_O.bmp,stimuli/EmptyFrame.bmp,stimuli/RedFrame.bmp,1,Happy,Female,3,1,1.0,332.2560119628906,332.2560119628906,0.0,336.2462158203125,336.2462158203125,0.0,335.2575378417969,335.2575378417969,0.0,1.0,1.0,0.0,'1',0.8408499956130981,0.8408499956130981,0.0,79.0
Happy,stimuli/26M_HA_O.BMP,stimuli/26M_HA_O.BMP,stimuli/27M_HA_O.BMP,stimuli/EmptyFrame.bmp,stimuli/RedFrame.bmp,1,Happy,Male,3,1,1.0,336.2738952636719,336.2738952636719,0.0,340.26507568359375,340.26507568359375,0.0,339.2796630859375,339.2796630859375,0.0,1.0,1.0,0.0,'1',0.7630321979522705,0.7630321979522705,0.0,80.0
Happy,stimuli/20M_HA_O.BMP,stimuli/21M_HA_O.BMP,stimuli/20M_HA_O.BMP,stimuli/EmptyFrame.bmp,stimuli/RedFrame.bmp,2,Happy,Male,3,1,1.0,340.29461669921875,340.29461669921875,0.0,344.2837829589844,344.2837829589844,0.0,343.3071594238281,343.3071594238281,0.0,1.0,1.0,0.0,'2',0.7775458097457886,0.7775458097457886,0.0,81.0
Happy,stimuli/37M_HA_O.BMP,stimuli/37M_HA_O.BMP,stimuli/36M_HA_O.BMP,stimuli/EmptyFrame.bmp,stimuli/RedFrame.bmp,1,Happy,Male,3,1,1.0,344.3129577636719,344.3129577636719,0.0,348.29327392578125,348.29327392578125,0.0,347.30499267578125,347.30499267578125,0.0,1.0,1.0,0.0,'1',0.9512953758239746,0.9512953758239746,0.0,82.0
Happy,stimuli/43M_HA_O.BMP,stimuli/42M_HA_O.BMP,stimuli/43M_HA_O.BMP,stimuli/EmptyFrame.bmp,stimuli/RedFrame.bmp,2,Happy,Male,3,1,1.0,348.3206481933594,348.3206481933594,0.0,352.3022766113281,352.3022766113281,0.0,351.322265625,351.322265625,0.0,1.0,1.0,0.0,'2',0.7759503722190857,0.7759503722190857,0.0,83.0
Happy,stimuli/11F_HA_O.BMP,stimuli/10F_HA_O.BMP,stimuli/11F_HA_O.BMP,stimuli/EmptyFrame.bmp,stimuli/RedFrame.bmp,2,Happy,Female,3,1,1.0,352.32666015625,352.32666015625,0.0,356.3172302246094,356.3172302246094,0.0,355.32928466796875,355.32928466796875,0.0,1.0,1.0,0.0,'2',0.8910890221595764,0.8910890221595764,0.0,84.0
Happy,stimuli/17F_HA_O.BMP,stimuli/16F_HA_O.BMP,stimuli/17F_HA_O.BMP,stimuli/EmptyFrame.bmp,stimuli/RedFrame.bmp,2,Happy,Female,3,1,1.0,356.34588623046875,356.34588623046875,0.0,360.3275146484375,360.3275146484375,0.0,359.3487548828125,359.3487548828125,0.0,1.0,1.0,0.0,'2',0.9471725225448608,0.9471725225448608,0.0,85.0
Happy,stimuli/15F_HA_O.BMP,stimuli/15F_HA_O.BMP,stimuli/14F_HA_O.BMP,stimuli/EmptyFrame.bmp,stimuli/RedFrame.bmp,1,Happy,Female,3,1,1.0,360.3913879394531,360.3913879394531,0.0,364.3471984863281,364.3471984863281,0.0,363.3526916503906,363.3526916503906,0.0,1.0,1.0,0.0,'1',1.2070112228393555,1.2070112228393555,0.0,86.0
Happy,stimuli/08F_HA_O.BMP,stimuli/08F_HA_O.BMP,stimuli/09F_HA_O.BMP,stimuli/EmptyFrame.bmp,stimuli/RedFrame.bmp,1,Happy,Female,3,1,1.0,364.41082763671875,364.41082763671875,0.0,368.3636474609375,368.3636474609375,0.0,367.3699951171875,367.3699951171875,0.0,1.0,1.0,0.0,'1',1.3458329439163208,1.3458329439163208,0.0,87.0
MatchFaces,stimuli/MatchFaces.bmp,stimuli/EmptyFace.bmp,stimuli/EmptyFace.bmp,stimuli/EmptyFrame.bmp,stimuli/EmptyFrame.bmp,Null,None,None,3,1,1.0,368.5645751953125,368.5645751953125,0.0,372.36737060546875,372.36737060546875,0.0,371.3717956542969,371.3717956542969,0.0,0.0,0.0,0.0,,,,,88.0
Fear,stimuli/34M_FE_O.BMP,stimuli/34M_FE_O.BMP,stimuli/33M_FE_O.BMP,stimuli/EmptyFrame.bmp,stimuli/RedFrame.bmp,1,Fear,Male,3,1,1.0,372.441162109375,372.441162109375,0.0,376.3814392089844,376.3814392089844,0.0,375.3975524902344,375.3975524902344,0.0,1.0,1.0,0.0,'1',1.0592740774154663,1.0592740774154663,0.0,89.0
Fear,stimuli/28M_FE_O.BMP,stimuli/28M_FE_O.BMP,stimuli/25M_FE_O.BMP,stimuli/EmptyFrame.bmp,stimuli/RedFrame.bmp,1,Fear,Male,3,1,1.0,376.4066467285156,376.4066467285156,0.0,380.4067687988281,380.4067687988281,0.0,379.4140625,379.4140625,0.0,1.0,1.0,0.0,'1',1.1428569555282593,1.1428569555282593,0.0,90.0
Fear,stimuli/11F_FE_O.BMP,stimuli/10F_FE_O.BMP,stimuli/11F_FE_O.BMP,stimuli/EmptyFrame.bmp,stimuli/RedFrame.bmp,2,Fear,Female,3,1,1.0,380.4334411621094,380.4334411621094,0.0,384.4212341308594,384.4212341308594,0.0,383.43048095703125,383.43048095703125,0.0,1.0,1.0,0.0,'2',0.761401891708374,0.761401891708374,0.0,91.0
Fear,stimuli/27M_FE_O.BMP,stimuli/26M_FE_O.BMP,stimuli/27M_FE_O.BMP,stimuli/EmptyFrame.bmp,stimuli/RedFrame.bmp,2,Fear,Male,3,1,1.0,384.4462890625,384.4462890625,0.0,388.4307556152344,388.4307556152344,0.0,387.45550537109375,387.45550537109375,0.0,1.0,1.0,0.0,'2',0.822961688041687,0.822961688041687,0.0,92.0
Fear,stimuli/11F_FE_O.BMP,stimuli/12F_FE_O.BMP,stimuli/11F_FE_O.BMP,stimuli/EmptyFrame.bmp,stimuli/RedFrame.bmp,2,Fear,Female,3,1,1.0,388.45721435546875,388.45721435546875,0.0,392.4483337402344,392.4483337402344,0.0,391.4557800292969,391.4557800292969,0.0,1.0,1.0,0.0,'2',0.7374967932701111,0.7374967932701111,0.0,93.0
Fear,stimuli/31M_FE_O.BMP,stimuli/31M_FE_O.BMP,stimuli/38M_FE_O.BMP,stimuli/EmptyFrame.bmp,stimuli/RedFrame.bmp,1,Fear,Male,3,1,1.0,392.4802551269531,392.4802551269531,0.0,396.45904541015625,396.45904541015625,0.0,395.475830078125,395.475830078125,0.0,1.0,1.0,0.0,'1',0.7957834005355835,0.7957834005355835,0.0,94.0
Fear,stimuli/29M_FE_O.BMP,stimuli/29M_FE_O.BMP,stimuli/24M_FE_O.BMP,stimuli/EmptyFrame.bmp,stimuli/RedFrame.bmp,1,Fear,Male,3,1,1.0,396.4827575683594,396.4827575683594,0.0,400.4823913574219,400.4823913574219,0.0,399.4882507324219,399.4882507324219,0.0,1.0,1.0,0.0,'1',0.8929923176765442,0.8929923176765442,0.0,95.0
Fear,stimuli/25M_FE_O.BMP,stimuli/29M_FE_O.BMP,stimuli/25M_FE_O.BMP,stimuli/EmptyFrame.bmp,stimuli/RedFrame.bmp,2,Fear,Male,3,1,1.0,400.5044860839844,400.5044860839844,0.0,404.4950256347656,404.4950256347656,0.0,403.5147705078125,403.5147705078125,0.0,1.0,1.0,0.0,'2',0.7284700870513916,0.7284700870513916,0.0,96.0
Fear,stimuli/15F_FE_O.BMP,stimuli/18F_FE_O.BMP,stimuli/15F_FE_O.BMP,stimuli/EmptyFrame.bmp,stimuli/RedFrame.bmp,2,Fear,Female,3,1,1.0,404.52252197265625,404.52252197265625,0.0,408.5132751464844,408.5132751464844,0.0,407.5251770019531,407.5251770019531,0.0,1.0,1.0,0.0,'2',0.7322657108306885,0.7322657108306885,0.0,97.0
Fear,stimuli/09F_FE_O.BMP,stimuli/09F_FE_O.BMP,stimuli/12F_FE_O.BMP,stimuli/EmptyFrame.bmp,stimuli/RedFrame.bmp,1,Fear,Female,3,1,1.0,408.53607177734375,408.53607177734375,0.0,412.5293884277344,412.5293884277344,0.0,411.54150390625,411.54150390625,0.0,1.0,1.0,0.0,'1',0.6819251775741577,0.6819251775741577,0.0,98.0
MatchFaces,stimuli/MatchFaces.bmp,stimuli/EmptyFace.bmp,stimuli/EmptyFace.bmp,stimuli/EmptyFrame.bmp,stimuli/EmptyFrame.bmp,Null,None,None,3,1,1.0,412.8160705566406,412.8160705566406,0.0,416.5420227050781,416.5420227050781,0.0,415.5419006347656,415.5419006347656,0.0,0.0,0.0,0.0,,,,,99.0
Anger,stimuli/23M_AN_O.BMP,stimuli/23M_AN_O.BMP,stimuli/31M_AN_O.BMP,stimuli/EmptyFrame.bmp,stimuli/RedFrame.bmp,1,Anger,Male,3,1,1.0,416.63555908203125,416.63555908203125,0.0,420.5528869628906,420.5528869628906,0.0,419.5686340332031,419.5686340332031,0.0,1.0,1.0,0.0,'1',0.7785031795501709,0.7785031795501709,0.0,100.0
Anger,stimuli/36M_AN_O.BMP,stimuli/37M_AN_O.BMP,stimuli/36M_AN_O.BMP,stimuli/EmptyFrame.bmp,stimuli/RedFrame.bmp,2,Anger,Male,3,1,1.0,420.5795593261719,420.5795593261719,0.0,424.572509765625,424.572509765625,0.0,423.58551025390625,423.58551025390625,0.0,1.0,1.0,0.0,'2',0.8659312129020691,0.8659312129020691,0.0,101.0
Anger,stimuli/38M_AN_O.BMP,stimuli/39M_AN_O.BMP,stimuli/38M_AN_O.BMP,stimuli/EmptyFrame.bmp,stimuli/RedFrame.bmp,2,Anger,Male,3,1,1.0,424.5983581542969,424.5983581542969,0.0,428.59014892578125,428.59014892578125,0.0,427.6035461425781,427.6035461425781,0.0,1.0,1.0,0.0,'2',0.903285026550293,0.903285026550293,0.0,102.0
Anger,stimuli/02f_an_o.bmp,stimuli/18F_AN_O.BMP,stimuli/02f_an_o.bmp,stimuli/EmptyFrame.bmp,stimuli/RedFrame.bmp,2,Anger,Female,3,1,1.0,428.6182861328125,428.6182861328125,0.0,432.6014404296875,432.6014404296875,0.0,431.6192626953125,431.6192626953125,0.0,1.0,1.0,0.0,'2',0.716247022151947,0.716247022151947,0.0,103.0
Anger,stimuli/22M_AN_O.BMP,stimuli/32M_AN_O.BMP,stimuli/22M_AN_O.BMP,stimuli/EmptyFrame.bmp,stimuli/RedFrame.bmp,2,Anger,Male,3,1,1.0,432.63140869140625,432.63140869140625,0.0,436.6158142089844,436.6158142089844,0.0,435.6324768066406,435.6324768066406,0.0,1.0,1.0,0.0,'2',0.7264074087142944,0.7264074087142944,0.0,104.0
Anger,stimuli/12F_AN_O.BMP,stimuli/12F_AN_O.BMP,stimuli/13F_AN_O.BMP,stimuli/EmptyFrame.bmp,stimuli/RedFrame.bmp,1,Anger,Female,3,1,1.0,436.63787841796875,436.63787841796875,0.0,440.6376953125,440.6376953125,0.0,439.64227294921875,439.64227294921875,0.0,1.0,1.0,0.0,'1',0.8221465945243835,0.8221465945243835,0.0,105.0
Anger,stimuli/05F_AN_O.bmp,stimuli/05F_AN_O.bmp,stimuli/16F_AN_O.BMP,stimuli/EmptyFrame.bmp,stimuli/RedFrame.bmp,1,Anger,Female,3,1,1.0,440.6989440917969,440.6989440917969,0.0,444.652587890625,444.652587890625,0.0,443.6715087890625,443.6715087890625,0.0,1.0,1.0,0.0,'1',0.7954226136207581,0.7954226136207581,0.0,106.0
Anger,stimuli/21M_AN_O.BMP,stimuli/21M_AN_O.BMP,stimuli/33M_AN_O.BMP,stimuli/EmptyFrame.bmp,stimuli/RedFrame.bmp,1,Anger,Male,3,1,1.0,444.6836242675781,444.6836242675781,0.0,448.6763916015625,448.6763916015625,0.0,447.67657470703125,447.67657470703125,0.0,1.0,1.0,0.0,'1',0.6987279057502747,0.6987279057502747,0.0,107.0
Anger,stimuli/07F_AN_O.BMP,stimuli/07F_AN_O.BMP,stimuli/14F_AN_O.BMP,stimuli/EmptyFrame.bmp,stimuli/RedFrame.bmp,1,Anger,Female,3,1,1.0,448.707275390625,448.707275390625,0.0,452.6944580078125,452.6944580078125,0.0,451.7121276855469,451.7121276855469,0.0,1.0,1.0,0.0,'1',0.7537834048271179,0.7537834048271179,0.0,108.0
Anger,stimuli/10F_AN_O.BMP,stimuli/10F_AN_O.BMP,stimuli/11F_AN_O.BMP,stimuli/EmptyFrame.bmp,stimuli/RedFrame.bmp,1,Anger,Female,3,1,1.0,452.7247619628906,452.7247619628906,0.0,456.710205078125,456.710205078125,0.0,455.7192687988281,455.7192687988281,0.0,1.0,1.0,0.0,'1',0.6240110993385315,0.6240110993385315,0.0,109.0

extraInfo
participant,sub022
session,001
date,2025_Jul_24_0910
expName,HaririTask_Ver2
psychopyVersion,3.0.1
frameRate,None
