TrialType,Top,Left,Right,EmptyFrame,SelectedFrame,Correct,Emotion,Gender,TrialLength,FixationLength,n,GCFaceStartTime_mean,GCFaceStartTime_raw,GCFaceStartTime_std,GCPostFaceFixationEndTime_mean,GCPostFaceFixationEndTime_raw,GCPostFaceFixationEndTime_std,GCPostFaceFixationStartTime_mean,GCPostFaceFixationStartTime_raw,GCPostFaceFixationStartTime_std,key_resp_trial.corr_mean,key_resp_trial.corr_raw,key_resp_trial.corr_std,key_resp_trial.keys_raw,key_resp_trial.rt_mean,key_resp_trial.rt_raw,key_resp_trial.rt_std,order
MatchFaces,stimuli/MatchFaces.bmp,stimuli/EmptyFace.bmp,stimuli/EmptyFace.bmp,stimuli/EmptyFrame.bmp,stimuli/EmptyFrame.bmp,Null,None,None,3,1,1.0,15.43690013885498,15.43690013885498,0.0,19.047977447509766,19.047977447509766,0.0,18.05390739440918,18.05390739440918,0.0,0.0,0.0,0.0,,,,,0.0
Anger,stimuli/01F_AN_O.bmp,stimuli/19F_AN_O.BMP,stimuli/01F_AN_O.bmp,stimuli/EmptyFrame.bmp,stimuli/RedFrame.bmp,2,Anger,Female,3,1,1.0,19.289194107055664,19.289194107055664,0.0,23.062149047851562,23.062149047851562,0.0,22.077693939208984,22.077693939208984,0.0,1.0,1.0,0.0,'2',1.8444998264312744,1.8444998264312744,0.0,1.0
Anger,stimuli/02f_an_o.bmp,stimuli/18F_AN_O.BMP,stimuli/02f_an_o.bmp,stimuli/EmptyFrame.bmp,stimuli/RedFrame.bmp,2,Anger,Female,3,1,1.0,23.085678100585938,23.085678100585938,0.0,27.08104133605957,27.08104133605957,0.0,26.085805892944336,26.085805892944336,0.0,1.0,1.0,0.0,'2',1.2763524055480957,1.2763524055480957,0.0,2.0
Anger,stimuli/20M_AN_O.BMP,stimuli/34M_AN_O.BMP,stimuli/20M_AN_O.BMP,stimuli/EmptyFrame.bmp,stimuli/RedFrame.bmp,2,Anger,Male,3,1,1.0,27.10663414001465,27.10663414001465,0.0,31.097402572631836,31.097402572631836,0.0,30.104537963867188,30.104537963867188,0.0,1.0,1.0,0.0,'2',1.638599157333374,1.638599157333374,0.0,3.0
Anger,stimuli/03F_AN_O.bmp,stimuli/03F_AN_O.bmp,stimuli/17F_AN_O.BMP,stimuli/EmptyFrame.bmp,stimuli/RedFrame.bmp,1,Anger,Female,3,1,1.0,31.12668800354004,31.12668800354004,0.0,35.108551025390625,35.108551025390625,0.0,34.1243782043457,34.1243782043457,0.0,1.0,1.0,0.0,'1',1.8104779720306396,1.8104779720306396,0.0,4.0
Anger,stimuli/21M_AN_O.BMP,stimuli/21M_AN_O.BMP,stimuli/33M_AN_O.BMP,stimuli/EmptyFrame.bmp,stimuli/RedFrame.bmp,1,Anger,Male,3,1,1.0,35.17101287841797,35.17101287841797,0.0,39.1181640625,39.1181640625,0.0,38.1411018371582,38.1411018371582,0.0,1.0,1.0,0.0,'1',1.517600655555725,1.517600655555725,0.0,5.0
Anger,stimuli/22M_AN_O.BMP,stimuli/32M_AN_O.BMP,stimuli/22M_AN_O.BMP,stimuli/EmptyFrame.bmp,stimuli/RedFrame.bmp,2,Anger,Male,3,1,1.0,39.147335052490234,39.147335052490234,0.0,43.131996154785156,43.131996154785156,0.0,42.14331817626953,42.14331817626953,0.0,1.0,1.0,0.0,'2',1.1551495790481567,1.1551495790481567,0.0,6.0
Anger,stimuli/23M_AN_O.BMP,stimuli/23M_AN_O.BMP,stimuli/31M_AN_O.BMP,stimuli/EmptyFrame.bmp,stimuli/RedFrame.bmp,1,Anger,Male,3,1,1.0,43.161014556884766,43.161014556884766,0.0,47.14324188232422,47.14324188232422,0.0,46.15517044067383,46.15517044067383,0.0,1.0,1.0,0.0,'1',1.6007945537567139,1.6007945537567139,0.0,7.0
Anger,stimuli/05F_AN_O.bmp,stimuli/05F_AN_O.bmp,stimuli/16F_AN_O.BMP,stimuli/EmptyFrame.bmp,stimuli/RedFrame.bmp,1,Anger,Female,3,1,1.0,47.20470428466797,47.20470428466797,0.0,51.154727935791016,51.154727935791016,0.0,50.16853713989258,50.16853713989258,0.0,1.0,1.0,0.0,'1',1.2963671684265137,1.2963671684265137,0.0,8.0
Anger,stimuli/06F_AN_O.bmp,stimuli/15F_AN_O.BMP,stimuli/06F_AN_O.bmp,stimuli/EmptyFrame.bmp,stimuli/RedFrame.bmp,2,Anger,Female,3,1,1.0,51.18484115600586,51.18484115600586,0.0,55.17578887939453,55.17578887939453,0.0,54.19355010986328,54.19355010986328,0.0,1.0,1.0,0.0,'2',1.2894970178604126,1.2894970178604126,0.0,9.0
Anger,stimuli/24M_AN_O.BMP,stimuli/24M_AN_O.BMP,stimuli/30M_AN_O.BMP,stimuli/EmptyFrame.bmp,stimuli/RedFrame.bmp,1,Anger,Male,3,1,1.0,55.21507263183594,55.21507263183594,0.0,59.19115447998047,59.19115447998047,0.0,58.21118927001953,58.21118927001953,0.0,1.0,1.0,0.0,'1',1.9330129623413086,1.9330129623413086,0.0,10.0
MatchShape,stimuli/MatchShapes.bmp,stimuli/EmptyFace.bmp,stimuli/EmptyFace.bmp,stimuli/EmptyFrame.bmp,stimuli/EmptyFrame.bmp,Null,None,None,3,1,1.0,59.22135925292969,59.22135925292969,0.0,63.196128845214844,63.196128845214844,0.0,62.2013053894043,62.2013053894043,0.0,0.0,0.0,0.0,,,,,11.0
Shape,stimuli/horizontal.bmp,stimuli/horizontal.bmp,stimuli/circle.bmp,stimuli/EmptyFrame.bmp,stimuli/RedFrame.bmp,1,Shape,None,3,1,1.0,63.24799346923828,63.24799346923828,0.0,67.21952819824219,67.21952819824219,0.0,66.23234558105469,66.23234558105469,0.0,1.0,1.0,0.0,'1',1.8524960279464722,1.8524960279464722,0.0,12.0
Shape,stimuli/vertical.bmp,stimuli/horizontal.bmp,stimuli/vertical.bmp,stimuli/EmptyFrame.bmp,stimuli/RedFrame.bmp,2,Shape,None,3,1,1.0,67.24889373779297,67.24889373779297,0.0,71.23059844970703,71.23059844970703,0.0,70.24581909179688,70.24581909179688,0.0,1.0,1.0,0.0,'2',1.1842212677001953,1.1842212677001953,0.0,13.0
Shape,stimuli/horizontal.bmp,stimuli/horizontal.bmp,stimuli/vertical.bmp,stimuli/EmptyFrame.bmp,stimuli/RedFrame.bmp,1,Shape,None,3,1,1.0,71.2552719116211,71.2552719116211,0.0,75.25335693359375,75.25335693359375,0.0,74.25167083740234,74.25167083740234,0.0,1.0,1.0,0.0,'1',1.2440840005874634,1.2440840005874634,0.0,14.0
Shape,stimuli/horizontal.bmp,stimuli/circle.bmp,stimuli/horizontal.bmp,stimuli/EmptyFrame.bmp,stimuli/RedFrame.bmp,2,Shape,None,3,1,1.0,75.27816009521484,75.27816009521484,0.0,79.2661361694336,79.2661361694336,0.0,78.28028106689453,78.28028106689453,0.0,1.0,1.0,0.0,'2',1.3045051097869873,1.3045051097869873,0.0,15.0
Shape,stimuli/circle.bmp,stimuli/circle.bmp,stimuli/vertical.bmp,stimuli/EmptyFrame.bmp,stimuli/RedFrame.bmp,1,Shape,None,3,1,1.0,79.28794860839844,79.28794860839844,0.0,83.27985382080078,83.27985382080078,0.0,82.298583984375,82.298583984375,0.0,1.0,1.0,0.0,'1',1.4592585563659668,1.4592585563659668,0.0,16.0
Shape,stimuli/circle.bmp,stimuli/circle.bmp,stimuli/horizontal.bmp,stimuli/EmptyFrame.bmp,stimuli/RedFrame.bmp,1,Shape,None,3,1,1.0,83.30613708496094,83.30613708496094,0.0,87.2955551147461,87.2955551147461,0.0,86.31201934814453,86.31201934814453,0.0,1.0,1.0,0.0,'1',1.5130573511123657,1.5130573511123657,0.0,17.0
Shape,stimuli/vertical.bmp,stimuli/circle.bmp,stimuli/vertical.bmp,stimuli/EmptyFrame.bmp,stimuli/RedFrame.bmp,2,Shape,None,3,1,1.0,87.32086944580078,87.32086944580078,0.0,91.30441284179688,91.30441284179688,0.0,90.32833862304688,90.32833862304688,0.0,1.0,1.0,0.0,'2',1.1097593307495117,1.1097593307495117,0.0,18.0
Shape,stimuli/circle.bmp,stimuli/vertical.bmp,stimuli/circle.bmp,stimuli/EmptyFrame.bmp,stimuli/RedFrame.bmp,2,Shape,None,3,1,1.0,91.32933807373047,91.32933807373047,0.0,95.31521606445312,95.31521606445312,0.0,94.33728790283203,94.33728790283203,0.0,1.0,1.0,0.0,'2',1.4767297506332397,1.4767297506332397,0.0,19.0
Shape,stimuli/vertical.bmp,stimuli/horizontal.bmp,stimuli/vertical.bmp,stimuli/EmptyFrame.bmp,stimuli/RedFrame.bmp,2,Shape,None,3,1,1.0,95.34095764160156,95.34095764160156,0.0,99.32698822021484,99.32698822021484,0.0,98.34123992919922,98.34123992919922,0.0,1.0,1.0,0.0,'2',1.4844030141830444,1.4844030141830444,0.0,20.0
Shape,stimuli/vertical.bmp,stimuli/vertical.bmp,stimuli/circle.bmp,stimuli/EmptyFrame.bmp,stimuli/RedFrame.bmp,1,Shape,None,3,1,1.0,99.3494873046875,99.3494873046875,0.0,103.342041015625,103.342041015625,0.0,102.35169982910156,102.35169982910156,0.0,1.0,1.0,0.0,'1',1.4802008867263794,1.4802008867263794,0.0,21.0
MatchFaces,stimuli/MatchFaces.bmp,stimuli/EmptyFace.bmp,stimuli/EmptyFace.bmp,stimuli/EmptyFrame.bmp,stimuli/EmptyFrame.bmp,Null,None,None,3,1,1.0,103.58619689941406,103.58619689941406,0.0,107.34867858886719,107.34867858886719,0.0,106.35546112060547,106.35546112060547,0.0,0.0,0.0,0.0,,,,,22.0
Neutral,stimuli/20M_NE_C.BMP,stimuli/21M_NE_C.BMP,stimuli/20M_NE_C.BMP,stimuli/EmptyFrame.bmp,stimuli/RedFrame.bmp,2,Neutral,Male,3,1,1.0,107.43896484375,107.43896484375,0.0,111.36702728271484,111.36702728271484,0.0,110.37830352783203,110.37830352783203,0.0,1.0,1.0,0.0,'2',1.8875534534454346,1.8875534534454346,0.0,23.0
Neutral,stimuli/01F_NE_C.bmp,stimuli/01F_NE_C.bmp,stimuli/02F_NE_C.bmp,stimuli/EmptyFrame.bmp,stimuli/RedFrame.bmp,1,Neutral,Female,3,1,1.0,111.39681243896484,111.39681243896484,0.0,115.3858642578125,115.3858642578125,0.0,114.39688110351562,114.39688110351562,0.0,1.0,1.0,0.0,'1',1.2328870296478271,1.2328870296478271,0.0,24.0
Neutral,stimuli/22M_NE_C.BMP,stimuli/23M_NE_C.BMP,stimuli/22M_NE_C.BMP,stimuli/EmptyFrame.bmp,stimuli/RedFrame.bmp,2,Neutral,Male,3,1,1.0,115.41558837890625,115.41558837890625,0.0,119.40779876708984,119.40779876708984,0.0,118.40684509277344,118.40684509277344,0.0,1.0,1.0,0.0,'2',1.1811866760253906,1.1811866760253906,0.0,25.0
Neutral,stimuli/24M_NE_C.BMP,stimuli/24M_NE_C.BMP,stimuli/25M_NE_C.BMP,stimuli/EmptyFrame.bmp,stimuli/RedFrame.bmp,1,Neutral,Male,3,1,1.0,119.43339538574219,119.43339538574219,0.0,123.41941833496094,123.41941833496094,0.0,122.43570709228516,122.43570709228516,0.0,1.0,1.0,0.0,'1',1.7336509227752686,1.7336509227752686,0.0,26.0
Neutral,stimuli/03F_NE_C.bmp,stimuli/05F_NE_C.bmp,stimuli/03F_NE_C.bmp,stimuli/EmptyFrame.bmp,stimuli/RedFrame.bmp,2,Neutral,Female,3,1,1.0,123.44449615478516,123.44449615478516,0.0,127.4350814819336,127.4350814819336,0.0,126.4434814453125,126.4434814453125,0.0,1.0,1.0,0.0,'2',1.3815126419067383,1.3815126419067383,0.0,27.0
Neutral,stimuli/26M_NE_C.BMP,stimuli/26M_NE_C.BMP,stimuli/27M_NE_C.BMP,stimuli/EmptyFrame.bmp,stimuli/RedFrame.bmp,1,Neutral,Male,3,1,1.0,127.46092224121094,127.46092224121094,0.0,131.45005798339844,131.45005798339844,0.0,130.46121215820312,130.46121215820312,0.0,1.0,1.0,0.0,'1',1.3821078538894653,1.3821078538894653,0.0,28.0
Neutral,stimuli/06F_NE_C.bmp,stimuli/07F_NE_C.BMP,stimuli/06F_NE_C.bmp,stimuli/EmptyFrame.bmp,stimuli/RedFrame.bmp,2,Neutral,Female,3,1,1.0,131.51333618164062,131.51333618164062,0.0,135.46072387695312,135.46072387695312,0.0,134.46969604492188,134.46969604492188,0.0,1.0,1.0,0.0,'2',2.149775266647339,2.149775266647339,0.0,29.0
Neutral,stimuli/08F_NE_C.BMP,stimuli/08F_NE_C.BMP,stimuli/09F_NE_C.BMP,stimuli/EmptyFrame.bmp,stimuli/RedFrame.bmp,1,Neutral,Female,3,1,1.0,135.48440551757812,135.48440551757812,0.0,139.47482299804688,139.47482299804688,0.0,138.4840087890625,138.4840087890625,0.0,1.0,1.0,0.0,'1',2.2463817596435547,2.2463817596435547,0.0,30.0
Neutral,stimuli/28M_NE_C.BMP,stimuli/29M_NE_C.BMP,stimuli/28M_NE_C.BMP,stimuli/EmptyFrame.bmp,stimuli/RedFrame.bmp,2,Neutral,Male,3,1,1.0,139.5047149658203,139.5047149658203,0.0,143.4848175048828,143.4848175048828,0.0,142.4972686767578,142.4972686767578,0.0,1.0,1.0,0.0,'2',2.173083543777466,2.173083543777466,0.0,31.0
Neutral,stimuli/10F_NE_C.BMP,stimuli/10F_NE_C.BMP,stimuli/06F_NE_C.bmp,stimuli/EmptyFrame.bmp,stimuli/RedFrame.bmp,1,Neutral,Female,3,1,1.0,143.5117645263672,143.5117645263672,0.0,147.50047302246094,147.50047302246094,0.0,146.51385498046875,146.51385498046875,0.0,1.0,1.0,0.0,'1',1.404757022857666,1.404757022857666,0.0,32.0
MatchFaces,stimuli/MatchFaces.bmp,stimuli/EmptyFace.bmp,stimuli/EmptyFace.bmp,stimuli/EmptyFrame.bmp,stimuli/EmptyFrame.bmp,Null,None,None,3,1,1.0,147.6877899169922,147.6877899169922,0.0,151.5081787109375,151.5081787109375,0.0,150.51438903808594,150.51438903808594,0.0,0.0,0.0,0.0,,,,,33.0
Fear,stimuli/07F_FE_O.BMP,stimuli/07F_FE_O.BMP,stimuli/14F_FE_O.BMP,stimuli/EmptyFrame.bmp,stimuli/RedFrame.bmp,1,Fear,Female,3,1,1.0,151.58468627929688,151.58468627929688,0.0,155.51724243164062,155.51724243164062,0.0,154.53396606445312,154.53396606445312,0.0,1.0,1.0,0.0,'1',1.7229297161102295,1.7229297161102295,0.0,34.0
Fear,stimuli/25M_FE_O.BMP,stimuli/29M_FE_O.BMP,stimuli/25M_FE_O.BMP,stimuli/EmptyFrame.bmp,stimuli/RedFrame.bmp,2,Fear,Male,3,1,1.0,155.54458618164062,155.54458618164062,0.0,159.5346221923828,159.5346221923828,0.0,158.53848266601562,158.53848266601562,0.0,1.0,1.0,0.0,'2',1.666978120803833,1.666978120803833,0.0,35.0
Fear,stimuli/26M_FE_O.BMP,stimuli/26M_FE_O.BMP,stimuli/28M_FE_O.BMP,stimuli/EmptyFrame.bmp,stimuli/RedFrame.bmp,1,Fear,Male,3,1,1.0,159.5612335205078,159.5612335205078,0.0,163.5469207763672,163.5469207763672,0.0,162.5650634765625,162.5650634765625,0.0,1.0,1.0,0.0,'1',1.524208664894104,1.524208664894104,0.0,36.0
Fear,stimuli/08F_FE_O.BMP,stimuli/13F_FE_O.BMP,stimuli/08F_FE_O.BMP,stimuli/EmptyFrame.bmp,stimuli/RedFrame.bmp,2,Fear,Female,3,1,1.0,163.57252502441406,163.57252502441406,0.0,167.55772399902344,167.55772399902344,0.0,166.56736755371094,166.56736755371094,0.0,1.0,1.0,0.0,'2',1.5416483879089355,1.5416483879089355,0.0,37.0
Fear,stimuli/09F_FE_O.BMP,stimuli/09F_FE_O.BMP,stimuli/12F_FE_O.BMP,stimuli/EmptyFrame.bmp,stimuli/RedFrame.bmp,1,Fear,Female,3,1,1.0,167.58494567871094,167.58494567871094,0.0,171.5686798095703,171.5686798095703,0.0,170.58572387695312,170.58572387695312,0.0,1.0,1.0,0.0,'1',1.2261029481887817,1.2261029481887817,0.0,38.0
Fear,stimuli/27M_FE_O.BMP,stimuli/26M_FE_O.BMP,stimuli/27M_FE_O.BMP,stimuli/EmptyFrame.bmp,stimuli/RedFrame.bmp,2,Fear,Male,3,1,1.0,171.5929718017578,171.5929718017578,0.0,175.58782958984375,175.58782958984375,0.0,174.59161376953125,174.59161376953125,0.0,1.0,1.0,0.0,'2',2.067004919052124,2.067004919052124,0.0,39.0
Fear,stimuli/28M_FE_O.BMP,stimuli/28M_FE_O.BMP,stimuli/25M_FE_O.BMP,stimuli/EmptyFrame.bmp,stimuli/RedFrame.bmp,1,Fear,Male,3,1,1.0,175.6119842529297,175.6119842529297,0.0,179.60447692871094,179.60447692871094,0.0,178.61984252929688,178.61984252929688,0.0,1.0,1.0,0.0,'1',2.670501232147217,2.670501232147217,0.0,40.0
Fear,stimuli/10F_FE_O.BMP,stimuli/11F_FE_O.BMP,stimuli/10F_FE_O.BMP,stimuli/EmptyFrame.bmp,stimuli/RedFrame.bmp,2,Fear,Female,3,1,1.0,179.6311798095703,179.6311798095703,0.0,183.61627197265625,183.61627197265625,0.0,182.62661743164062,182.62661743164062,0.0,1.0,1.0,0.0,'2',1.418055534362793,1.418055534362793,0.0,41.0
Fear,stimuli/29M_FE_O.BMP,stimuli/29M_FE_O.BMP,stimuli/24M_FE_O.BMP,stimuli/EmptyFrame.bmp,stimuli/RedFrame.bmp,1,Fear,Male,3,1,1.0,183.6441650390625,183.6441650390625,0.0,187.63485717773438,187.63485717773438,0.0,186.64466857910156,186.64466857910156,0.0,1.0,1.0,0.0,'1',1.1418571472167969,1.1418571472167969,0.0,42.0
Fear,stimuli/11F_FE_O.BMP,stimuli/10F_FE_O.BMP,stimuli/11F_FE_O.BMP,stimuli/EmptyFrame.bmp,stimuli/RedFrame.bmp,2,Fear,Female,3,1,1.0,187.65631103515625,187.65631103515625,0.0,191.6493377685547,191.6493377685547,0.0,190.6614227294922,190.6614227294922,0.0,1.0,1.0,0.0,'2',1.0727477073669434,1.0727477073669434,0.0,43.0
MatchFaces,stimuli/MatchFaces.bmp,stimuli/EmptyFace.bmp,stimuli/EmptyFace.bmp,stimuli/EmptyFrame.bmp,stimuli/EmptyFrame.bmp,Null,None,None,3,1,1.0,191.86131286621094,191.86131286621094,0.0,195.65663146972656,195.65663146972656,0.0,194.6683349609375,194.6683349609375,0.0,0.0,0.0,0.0,,,,,44.0
Happy,stimuli/19F_HA_O.BMP,stimuli/19F_HA_O.BMP,stimuli/18F_HA_O.BMP,stimuli/EmptyFrame.bmp,stimuli/RedFrame.bmp,1,Happy,Female,3,1,1.0,195.76589965820312,195.76589965820312,0.0,199.6719970703125,199.6719970703125,0.0,198.6789093017578,198.6789093017578,0.0,1.0,1.0,0.0,'1',1.2433233261108398,1.2433233261108398,0.0,45.0
Happy,stimuli/17F_HA_O.BMP,stimuli/16F_HA_O.BMP,stimuli/17F_HA_O.BMP,stimuli/EmptyFrame.bmp,stimuli/RedFrame.bmp,2,Happy,Female,3,1,1.0,199.7172088623047,199.7172088623047,0.0,203.6882781982422,203.6882781982422,0.0,202.70301818847656,202.70301818847656,0.0,1.0,1.0,0.0,'2',2.027306318283081,2.027306318283081,0.0,46.0
Happy,stimuli/43M_HA_O.BMP,stimuli/42M_HA_O.BMP,stimuli/43M_HA_O.BMP,stimuli/EmptyFrame.bmp,stimuli/RedFrame.bmp,2,Happy,Male,3,1,1.0,203.71636962890625,203.71636962890625,0.0,207.7021026611328,207.7021026611328,0.0,206.71470642089844,206.71470642089844,0.0,1.0,1.0,0.0,'2',1.0421096086502075,1.0421096086502075,0.0,47.0
Happy,stimuli/41M_HA_O.BMP,stimuli/41M_HA_O.BMP,stimuli/40M_HA_O.BMP,stimuli/EmptyFrame.bmp,stimuli/RedFrame.bmp,1,Happy,Male,3,1,1.0,207.72848510742188,207.72848510742188,0.0,211.7208709716797,211.7208709716797,0.0,210.73089599609375,210.73089599609375,0.0,1.0,1.0,0.0,'1',1.5651427507400513,1.5651427507400513,0.0,48.0
Happy,stimuli/15F_HA_O.BMP,stimuli/15F_HA_O.BMP,stimuli/14F_HA_O.BMP,stimuli/EmptyFrame.bmp,stimuli/RedFrame.bmp,1,Happy,Female,3,1,1.0,211.74830627441406,211.74830627441406,0.0,215.73753356933594,215.73753356933594,0.0,214.75180053710938,214.75180053710938,0.0,1.0,1.0,0.0,'1',1.7686437368392944,1.7686437368392944,0.0,49.0
Happy,stimuli/13F_HA_O.BMP,stimuli/13F_HA_O.BMP,stimuli/12F_HA_O.BMP,stimuli/EmptyFrame.bmp,stimuli/RedFrame.bmp,1,Happy,Female,3,1,1.0,215.76458740234375,215.76458740234375,0.0,219.75607299804688,219.75607299804688,0.0,218.76881408691406,218.76881408691406,0.0,1.0,1.0,0.0,'1',1.0673494338989258,1.0673494338989258,0.0,50.0
Happy,stimuli/39M_HA_O.BMP,stimuli/38M_HA_O.BMP,stimuli/39M_HA_O.BMP,stimuli/EmptyFrame.bmp,stimuli/RedFrame.bmp,2,Happy,Male,3,1,1.0,219.7814483642578,219.7814483642578,0.0,223.77159118652344,223.77159118652344,0.0,222.7836151123047,222.7836151123047,0.0,1.0,1.0,0.0,'2',1.449462890625,1.449462890625,0.0,51.0
Happy,stimuli/37M_HA_O.BMP,stimuli/37M_HA_O.BMP,stimuli/36M_HA_O.BMP,stimuli/EmptyFrame.bmp,stimuli/RedFrame.bmp,1,Happy,Male,3,1,1.0,223.79750061035156,223.79750061035156,0.0,227.7928466796875,227.7928466796875,0.0,226.79351806640625,226.79351806640625,0.0,1.0,1.0,0.0,'1',1.547790765762329,1.547790765762329,0.0,52.0
Happy,stimuli/35M_HA_O.BMP,stimuli/34M_HA_O.BMP,stimuli/35M_HA_O.BMP,stimuli/EmptyFrame.bmp,stimuli/RedFrame.bmp,2,Happy,Male,3,1,1.0,227.82095336914062,227.82095336914062,0.0,231.81219482421875,231.81219482421875,0.0,230.81454467773438,230.81454467773438,0.0,1.0,1.0,0.0,'2',1.415622353553772,1.415622353553772,0.0,53.0
Happy,stimuli/11F_HA_O.BMP,stimuli/10F_HA_O.BMP,stimuli/11F_HA_O.BMP,stimuli/EmptyFrame.bmp,stimuli/RedFrame.bmp,2,Happy,Female,3,1,1.0,231.83924865722656,231.83924865722656,0.0,235.82740783691406,235.82740783691406,0.0,234.83799743652344,234.83799743652344,0.0,1.0,1.0,0.0,'2',0.9606730937957764,0.9606730937957764,0.0,54.0
Match Shape,stimuli/MatchShapes.bmp,stimuli/EmptyFace.bmp,stimuli/EmptyFace.bmp,stimuli/EmptyFrame.bmp,stimuli/EmptyFrame.bmp,Null,None,None,3,1,1.0,235.85113525390625,235.85113525390625,0.0,239.82867431640625,239.82867431640625,0.0,238.8343048095703,238.8343048095703,0.0,0.0,0.0,0.0,,,,,55.0
Shape,stimuli/circle.bmp,stimuli/vertical.bmp,stimuli/circle.bmp,stimuli/EmptyFrame.bmp,stimuli/RedFrame.bmp,2,Shape,None,3,1,1.0,239.8579864501953,239.8579864501953,0.0,243.8474884033203,243.8474884033203,0.0,242.85723876953125,242.85723876953125,0.0,1.0,1.0,0.0,'2',1.0549403429031372,1.0549403429031372,0.0,56.0
Shape,stimuli/horizontal.bmp,stimuli/circle.bmp,stimuli/horizontal.bmp,stimuli/EmptyFrame.bmp,stimuli/RedFrame.bmp,2,Shape,None,3,1,1.0,243.87088012695312,243.87088012695312,0.0,247.8622283935547,247.8622283935547,0.0,246.8675994873047,246.8675994873047,0.0,1.0,1.0,0.0,'2',0.9882606863975525,0.9882606863975525,0.0,57.0
Shape,stimuli/vertical.bmp,stimuli/vertical.bmp,stimuli/horizontal.bmp,stimuli/EmptyFrame.bmp,stimuli/RedFrame.bmp,1,Shape,None,3,1,1.0,247.885009765625,247.885009765625,0.0,251.8804168701172,251.8804168701172,0.0,250.8844451904297,250.8844451904297,0.0,1.0,1.0,0.0,'1',0.8635417819023132,0.8635417819023132,0.0,58.0
Shape,stimuli/horizontal.bmp,stimuli/circle.bmp,stimuli/horizontal.bmp,stimuli/EmptyFrame.bmp,stimuli/RedFrame.bmp,2,Shape,None,3,1,1.0,251.89976501464844,251.89976501464844,0.0,255.89437866210938,255.89437866210938,0.0,254.91409301757812,254.91409301757812,0.0,1.0,1.0,0.0,'2',1.0426028966903687,1.0426028966903687,0.0,59.0
Shape,stimuli/horizontal.bmp,stimuli/horizontal.bmp,stimuli/vertical.bmp,stimuli/EmptyFrame.bmp,stimuli/RedFrame.bmp,1,Shape,None,3,1,1.0,255.9182586669922,255.9182586669922,0.0,259.9038391113281,259.9038391113281,0.0,258.9231262207031,258.9231262207031,0.0,1.0,1.0,0.0,'1',1.4604053497314453,1.4604053497314453,0.0,60.0
Shape,stimuli/vertical.bmp,stimuli/vertical.bmp,stimuli/circle.bmp,stimuli/EmptyFrame.bmp,stimuli/RedFrame.bmp,1,Shape,None,3,1,1.0,259.9261474609375,259.9261474609375,0.0,263.91534423828125,263.91534423828125,0.0,262.9303283691406,262.9303283691406,0.0,1.0,1.0,0.0,'1',1.004183292388916,1.004183292388916,0.0,61.0
Shape,stimuli/circle.bmp,stimuli/horizontal.bmp,stimuli/circle.bmp,stimuli/EmptyFrame.bmp,stimuli/RedFrame.bmp,2,Shape,None,3,1,1.0,263.9389343261719,263.9389343261719,0.0,267.92730712890625,267.92730712890625,0.0,266.94354248046875,266.94354248046875,0.0,1.0,1.0,0.0,'2',1.0050991773605347,1.0050991773605347,0.0,62.0
Shape,stimuli/circle.bmp,stimuli/vertical.bmp,stimuli/circle.bmp,stimuli/EmptyFrame.bmp,stimuli/RedFrame.bmp,2,Shape,None,3,1,1.0,267.9497985839844,267.9497985839844,0.0,271.93701171875,271.93701171875,0.0,270.9603271484375,270.9603271484375,0.0,1.0,1.0,0.0,'2',0.7639576196670532,0.7639576196670532,0.0,63.0
Shape,stimuli/vertical.bmp,stimuli/vertical.bmp,stimuli/horizontal.bmp,stimuli/EmptyFrame.bmp,stimuli/RedFrame.bmp,1,Shape,None,3,1,1.0,271.9610595703125,271.9610595703125,0.0,275.94866943359375,275.94866943359375,0.0,274.972412109375,274.972412109375,0.0,1.0,1.0,0.0,'1',0.8789184093475342,0.8789184093475342,0.0,64.0
Shape,stimuli/horizontal.bmp,stimuli/horizontal.bmp,stimuli/circle.bmp,stimuli/EmptyFrame.bmp,stimuli/RedFrame.bmp,1,Shape,None,3,1,1.0,275.9722595214844,275.9722595214844,0.0,279.96368408203125,279.96368408203125,0.0,278.97650146484375,278.97650146484375,0.0,1.0,1.0,0.0,'1',0.92724609375,0.92724609375,0.0,65.0
MatchFaces,stimuli/MatchFaces.bmp,stimuli/EmptyFace.bmp,stimuli/EmptyFace.bmp,stimuli/EmptyFrame.bmp,stimuli/EmptyFrame.bmp,Null,None,None,3,1,1.0,280.1548156738281,280.1548156738281,0.0,283.96832275390625,283.96832275390625,0.0,282.9759216308594,282.9759216308594,0.0,0.0,0.0,0.0,,,,,66.0
Anger,stimuli/42M_AN_O.BMP,stimuli/42M_AN_O.BMP,stimuli/43M_AN_O.BMP,stimuli/EmptyFrame.bmp,stimuli/RedFrame.bmp,1,Anger,Male,3,1,1.0,284.0372314453125,284.0372314453125,0.0,287.9867858886719,287.9867858886719,0.0,286.9923095703125,286.9923095703125,0.0,1.0,1.0,0.0,'1',1.3886041641235352,1.3886041641235352,0.0,67.0
Anger,stimuli/07F_AN_O.BMP,stimuli/07F_AN_O.BMP,stimuli/14F_AN_O.BMP,stimuli/EmptyFrame.bmp,stimuli/RedFrame.bmp,1,Anger,Female,3,1,1.0,288.01708984375,288.01708984375,0.0,292.0129089355469,292.0129089355469,0.0,291.0148620605469,291.0148620605469,0.0,1.0,1.0,0.0,'1',1.1104605197906494,1.1104605197906494,0.0,68.0
Anger,stimuli/40M_AN_O.BMP,stimuli/41M_AN_O.BMP,stimuli/40M_AN_O.BMP,stimuli/EmptyFrame.bmp,stimuli/RedFrame.bmp,2,Anger,Male,3,1,1.0,292.04290771484375,292.04290771484375,0.0,296.0259704589844,296.0259704589844,0.0,295.0472412109375,295.0472412109375,0.0,1.0,1.0,0.0,'2',0.8531152009963989,0.8531152009963989,0.0,69.0
Anger,stimuli/38M_AN_O.BMP,stimuli/39M_AN_O.BMP,stimuli/38M_AN_O.BMP,stimuli/EmptyFrame.bmp,stimuli/RedFrame.bmp,2,Anger,Male,3,1,1.0,296.0537109375,296.0537109375,0.0,300.0465393066406,300.0465393066406,0.0,299.0552978515625,299.0552978515625,0.0,1.0,1.0,0.0,'2',1.110278606414795,1.110278606414795,0.0,70.0
Anger,stimuli/08F_AN_O.BMP,stimuli/08F_AN_O.BMP,stimuli/13F_AN_O.BMP,stimuli/EmptyFrame.bmp,stimuli/RedFrame.bmp,1,Anger,Female,3,1,1.0,300.0695495605469,300.0695495605469,0.0,304.0598449707031,304.0598449707031,0.0,303.0708923339844,303.0708923339844,0.0,1.0,1.0,0.0,'1',0.9786033034324646,0.9786033034324646,0.0,71.0
Anger,stimuli/36M_AN_O.BMP,stimuli/37M_AN_O.BMP,stimuli/36M_AN_O.BMP,stimuli/EmptyFrame.bmp,stimuli/RedFrame.bmp,2,Anger,Male,3,1,1.0,304.0853271484375,304.0853271484375,0.0,308.07147216796875,308.07147216796875,0.0,307.088134765625,307.088134765625,0.0,1.0,1.0,0.0,'2',1.1553730964660645,1.1553730964660645,0.0,72.0
Anger,stimuli/09F_AN_O.BMP,stimuli/12F_AN_O.BMP,stimuli/09F_AN_O.BMP,stimuli/EmptyFrame.bmp,stimuli/RedFrame.bmp,2,Anger,Female,3,1,1.0,308.0975036621094,308.0975036621094,0.0,312.088134765625,312.088134765625,0.0,311.09710693359375,311.09710693359375,0.0,1.0,1.0,0.0,'2',0.8167235851287842,0.8167235851287842,0.0,73.0
Anger,stimuli/34M_AN_O.BMP,stimuli/35M_AN_O.BMP,stimuli/34M_AN_O.BMP,stimuli/EmptyFrame.bmp,stimuli/RedFrame.bmp,2,Anger,Male,3,1,1.0,312.1114196777344,312.1114196777344,0.0,316.11016845703125,316.11016845703125,0.0,315.11566162109375,315.11566162109375,0.0,1.0,1.0,0.0,'2',0.9001303911209106,0.9001303911209106,0.0,74.0
Anger,stimuli/10F_AN_O.BMP,stimuli/10F_AN_O.BMP,stimuli/11F_AN_O.BMP,stimuli/EmptyFrame.bmp,stimuli/RedFrame.bmp,1,Anger,Female,3,1,1.0,316.13592529296875,316.13592529296875,0.0,320.12945556640625,320.12945556640625,0.0,319.1426696777344,319.1426696777344,0.0,1.0,1.0,0.0,'1',0.9239693880081177,0.9239693880081177,0.0,75.0
Anger,stimuli/12F_AN_O.BMP,stimuli/12F_AN_O.BMP,stimuli/13F_AN_O.BMP,stimuli/EmptyFrame.bmp,stimuli/RedFrame.bmp,1,Anger,Female,3,1,1.0,320.15252685546875,320.15252685546875,0.0,324.1399841308594,324.1399841308594,0.0,323.1520080566406,323.1520080566406,0.0,1.0,1.0,0.0,'1',0.8082954287528992,0.8082954287528992,0.0,76.0
MatchFaces,stimuli/MatchFaces.bmp,stimuli/EmptyFace.bmp,stimuli/EmptyFace.bmp,stimuli/EmptyFrame.bmp,stimuli/EmptyFrame.bmp,Null,None,None,3,1,1.0,324.37615966796875,324.37615966796875,0.0,328.1441955566406,328.1441955566406,0.0,327.1587219238281,327.1587219238281,0.0,0.0,0.0,0.0,,,,,77.0
Happy,stimuli/20M_HA_O.BMP,stimuli/21M_HA_O.BMP,stimuli/20M_HA_O.BMP,stimuli/EmptyFrame.bmp,stimuli/RedFrame.bmp,2,Happy,Male,3,1,1.0,328.2159729003906,328.2159729003906,0.0,332.1600646972656,332.1600646972656,0.0,331.1678466796875,331.1678466796875,0.0,1.0,1.0,0.0,'2',0.9023689031600952,0.9023689031600952,0.0,78.0
Happy,stimuli/01F_HA_O.bmp,stimuli/01F_HA_O.bmp,stimuli/02F_HA_O.bmp,stimuli/EmptyFrame.bmp,stimuli/RedFrame.bmp,1,Happy,Female,3,1,1.0,332.19110107421875,332.19110107421875,0.0,336.1691589355469,336.1691589355469,0.0,335.1883239746094,335.1883239746094,0.0,1.0,1.0,0.0,'1',0.889592170715332,0.889592170715332,0.0,79.0
Happy,stimuli/22M_HA_O.BMP,stimuli/23M_HA_O.BMP,stimuli/22M_HA_O.BMP,stimuli/EmptyFrame.bmp,stimuli/RedFrame.bmp,2,Happy,Male,3,1,1.0,336.1995544433594,336.1995544433594,0.0,340.1842041015625,340.1842041015625,0.0,339.2002258300781,339.2002258300781,0.0,1.0,1.0,0.0,'2',0.8345143795013428,0.8345143795013428,0.0,80.0
Happy,stimuli/24M_HA_O.BMP,stimuli/24M_HA_O.BMP,stimuli/25M_HA_O.BMP,stimuli/EmptyFrame.bmp,stimuli/RedFrame.bmp,1,Happy,Male,3,1,1.0,340.20928955078125,340.20928955078125,0.0,344.19390869140625,344.19390869140625,0.0,343.2088623046875,343.2088623046875,0.0,1.0,1.0,0.0,'1',1.1492042541503906,1.1492042541503906,0.0,81.0
Happy,stimuli/03F_HA_O.bmp,stimuli/05F_HA_O.bmp,stimuli/03F_HA_O.bmp,stimuli/EmptyFrame.bmp,stimuli/RedFrame.bmp,2,Happy,Female,3,1,1.0,344.2234802246094,344.2234802246094,0.0,348.2112731933594,348.2112731933594,0.0,347.2256774902344,347.2256774902344,0.0,1.0,1.0,0.0,'2',1.3794939517974854,1.3794939517974854,0.0,82.0
Happy,stimuli/26M_HA_O.BMP,stimuli/26M_HA_O.BMP,stimuli/27M_HA_O.BMP,stimuli/EmptyFrame.bmp,stimuli/RedFrame.bmp,1,Happy,Male,3,1,1.0,348.2354431152344,348.2354431152344,0.0,352.2237548828125,352.2237548828125,0.0,351.23919677734375,351.23919677734375,0.0,1.0,1.0,0.0,'1',1.043070912361145,1.043070912361145,0.0,83.0
Happy,stimuli/06F_HA_O.bmp,stimuli/07F_HA_O.BMP,stimuli/06F_HA_O.bmp,stimuli/EmptyFrame.bmp,stimuli/RedFrame.bmp,2,Happy,Female,3,1,1.0,352.2494812011719,352.2494812011719,0.0,356.23638916015625,356.23638916015625,0.0,355.2481384277344,355.2481384277344,0.0,1.0,1.0,0.0,'2',1.8596888780593872,1.8596888780593872,0.0,84.0
Happy,stimuli/08F_HA_O.BMP,stimuli/08F_HA_O.BMP,stimuli/09F_HA_O.BMP,stimuli/EmptyFrame.bmp,stimuli/RedFrame.bmp,1,Happy,Female,3,1,1.0,356.3015441894531,356.3015441894531,0.0,360.2548828125,360.2548828125,0.0,359.2626953125,359.2626953125,0.0,1.0,1.0,0.0,'1',2.043501138687134,2.043501138687134,0.0,85.0
Happy,stimuli/28M_HA_O.BMP,stimuli/29M_HA_O.BMP,stimuli/28M_HA_O.BMP,stimuli/EmptyFrame.bmp,stimuli/RedFrame.bmp,2,Happy,Male,3,1,1.0,360.2802429199219,360.2802429199219,0.0,364.26959228515625,364.26959228515625,0.0,363.28302001953125,363.28302001953125,0.0,1.0,1.0,0.0,'2',1.68287193775177,1.68287193775177,0.0,86.0
Happy,stimuli/10F_HA_O.BMP,stimuli/10F_HA_O.BMP,stimuli/06F_HA_O.bmp,stimuli/EmptyFrame.bmp,stimuli/RedFrame.bmp,1,Happy,Female,3,1,1.0,364.29083251953125,364.29083251953125,0.0,368.28424072265625,368.28424072265625,0.0,367.3005065917969,367.3005065917969,0.0,1.0,1.0,0.0,'1',0.8058869242668152,0.8058869242668152,0.0,87.0
MatchFaces,stimuli/MatchFaces.bmp,stimuli/EmptyFace.bmp,stimuli/EmptyFace.bmp,stimuli/EmptyFrame.bmp,stimuli/EmptyFrame.bmp,Null,None,None,3,1,1.0,368.49285888671875,368.49285888671875,0.0,372.2945861816406,372.2945861816406,0.0,371.29595947265625,371.29595947265625,0.0,0.0,0.0,0.0,,,,,88.0
Neutral,stimuli/07F_NE_C.BMP,stimuli/07F_NE_C.BMP,stimuli/14F_NE_C.BMP,stimuli/EmptyFrame.bmp,stimuli/RedFrame.bmp,1,Neutral,Female,3,1,1.0,372.3659362792969,372.3659362792969,0.0,376.30352783203125,376.30352783203125,0.0,375.3192138671875,375.3192138671875,0.0,1.0,1.0,0.0,'1',0.9491642117500305,0.9491642117500305,0.0,89.0
Neutral,stimuli/25M_NE_C.BMP,stimuli/29M_NE_C.BMP,stimuli/25M_NE_C.BMP,stimuli/EmptyFrame.bmp,stimuli/RedFrame.bmp,2,Neutral,Male,3,1,1.0,376.3252258300781,376.3252258300781,0.0,380.3185729980469,380.3185729980469,0.0,379.330322265625,379.330322265625,0.0,1.0,1.0,0.0,'2',1.1025609970092773,1.1025609970092773,0.0,90.0
Neutral,stimuli/26M_NE_C.BMP,stimuli/26M_NE_C.BMP,stimuli/28M_NE_C.BMP,stimuli/EmptyFrame.bmp,stimuli/RedFrame.bmp,1,Neutral,Male,3,1,1.0,380.3414611816406,380.3414611816406,0.0,384.33697509765625,384.33697509765625,0.0,383.3417053222656,383.3417053222656,0.0,1.0,1.0,0.0,'1',1.03719961643219,1.03719961643219,0.0,91.0
Neutral,stimuli/08F_NE_C.BMP,stimuli/13F_NE_C.BMP,stimuli/08F_NE_C.BMP,stimuli/EmptyFrame.bmp,stimuli/RedFrame.bmp,2,Neutral,Female,3,1,1.0,384.36279296875,384.36279296875,0.0,388.3563232421875,388.3563232421875,0.0,387.3695068359375,387.3695068359375,0.0,1.0,1.0,0.0,'2',0.9788252711296082,0.9788252711296082,0.0,92.0
Neutral,stimuli/09F_NE_C.BMP,stimuli/09F_NE_C.BMP,stimuli/12F_NE_C.BMP,stimuli/EmptyFrame.bmp,stimuli/RedFrame.bmp,1,Neutral,Female,3,1,1.0,388.3831481933594,388.3831481933594,0.0,392.371826171875,392.371826171875,0.0,391.39801025390625,391.39801025390625,0.0,1.0,1.0,0.0,'1',0.9069952964782715,0.9069952964782715,0.0,93.0
Neutral,stimuli/27M_NE_C.BMP,stimuli/26M_NE_C.BMP,stimuli/27M_NE_C.BMP,stimuli/EmptyFrame.bmp,stimuli/RedFrame.bmp,2,Neutral,Male,3,1,1.0,392.39508056640625,392.39508056640625,0.0,396.384033203125,396.384033203125,0.0,395.4012145996094,395.4012145996094,0.0,1.0,1.0,0.0,'2',0.8991196155548096,0.8991196155548096,0.0,94.0
Neutral,stimuli/28M_NE_C.BMP,stimuli/28M_NE_C.BMP,stimuli/25M_NE_C.BMP,stimuli/EmptyFrame.bmp,stimuli/RedFrame.bmp,1,Neutral,Male,3,1,1.0,396.4068298339844,396.4068298339844,0.0,400.40155029296875,400.40155029296875,0.0,399.4077453613281,399.4077453613281,0.0,1.0,1.0,0.0,'1',1.256121039390564,1.256121039390564,0.0,95.0
Neutral,stimuli/10F_NE_C.BMP,stimuli/11F_NE_C.BMP,stimuli/10F_NE_C.BMP,stimuli/EmptyFrame.bmp,stimuli/RedFrame.bmp,2,Neutral,Female,3,1,1.0,400.42755126953125,400.42755126953125,0.0,404.4188232421875,404.4188232421875,0.0,403.4248962402344,403.4248962402344,0.0,1.0,1.0,0.0,'2',0.8487334847450256,0.8487334847450256,0.0,96.0
Neutral,stimuli/29M_NE_C.BMP,stimuli/29M_NE_C.BMP,stimuli/24M_NE_C.BMP,stimuli/EmptyFrame.bmp,stimuli/RedFrame.bmp,1,Neutral,Male,3,1,1.0,404.44219970703125,404.44219970703125,0.0,408.4315490722656,408.4315490722656,0.0,407.4428405761719,407.4428405761719,0.0,1.0,1.0,0.0,'1',0.9623129963874817,0.9623129963874817,0.0,97.0
Neutral,stimuli/11F_NE_C.BMP,stimuli/10F_NE_C.BMP,stimuli/11F_NE_C.BMP,stimuli/EmptyFrame.bmp,stimuli/RedFrame.bmp,2,Neutral,Female,3,1,1.0,408.4523010253906,408.4523010253906,0.0,412.44683837890625,412.44683837890625,0.0,411.4595642089844,411.4595642089844,0.0,1.0,1.0,0.0,'2',0.7569652199745178,0.7569652199745178,0.0,98.0
MatchFaces,stimuli/MatchFaces.bmp,stimuli/EmptyFace.bmp,stimuli/EmptyFace.bmp,stimuli/EmptyFrame.bmp,stimuli/EmptyFrame.bmp,Null,None,None,3,1,1.0,412.6798095703125,412.6798095703125,0.0,416.4500732421875,416.4500732421875,0.0,415.46038818359375,415.46038818359375,0.0,0.0,0.0,0.0,,,,,99.0
Fear,stimuli/23M_FE_O.BMP,stimuli/23M_FE_O.BMP,stimuli/24M_FE_O.BMP,stimuli/EmptyFrame.bmp,stimuli/RedFrame.bmp,1,Fear,Male,3,1,1.0,416.520263671875,416.520263671875,0.0,420.460205078125,420.460205078125,0.0,419.4793701171875,419.4793701171875,0.0,1.0,1.0,0.0,'1',1.1902014017105103,1.1902014017105103,0.0,100.0
Fear,stimuli/19F_FE_O.BMP,stimuli/18F_FE_O.BMP,stimuli/19F_FE_O.BMP,stimuli/EmptyFrame.bmp,stimuli/RedFrame.bmp,2,Fear,Female,3,1,1.0,420.4840393066406,420.4840393066406,0.0,424.4809265136719,424.4809265136719,0.0,423.4827880859375,423.4827880859375,0.0,1.0,1.0,0.0,'2',1.1590075492858887,1.1590075492858887,0.0,101.0
Fear,stimuli/17F_FE_O.BMP,stimuli/17F_FE_O.BMP,stimuli/16F_FE_O.BMP,stimuli/EmptyFrame.bmp,stimuli/RedFrame.bmp,1,Fear,Female,3,1,1.0,424.5063781738281,424.5063781738281,0.0,428.49517822265625,428.49517822265625,0.0,427.51593017578125,427.51593017578125,0.0,1.0,1.0,0.0,'1',1.6887900829315186,1.6887900829315186,0.0,102.0
Fear,stimuli/15F_FE_O.BMP,stimuli/18F_FE_O.BMP,stimuli/15F_FE_O.BMP,stimuli/EmptyFrame.bmp,stimuli/RedFrame.bmp,2,Fear,Female,3,1,1.0,428.5208435058594,428.5208435058594,0.0,432.5155944824219,432.5155944824219,0.0,431.5369567871094,431.5369567871094,0.0,1.0,1.0,0.0,'2',1.3714474439620972,1.3714474439620972,0.0,103.0
Fear,stimuli/21M_FE_O.BMP,stimuli/21M_FE_O.BMP,stimuli/22M_FE_O.BMP,stimuli/EmptyFrame.bmp,stimuli/RedFrame.bmp,1,Fear,Male,3,1,1.0,432.54217529296875,432.54217529296875,0.0,436.5315246582031,436.5315246582031,0.0,435.54443359375,435.54443359375,0.0,1.0,1.0,0.0,'1',1.0877364873886108,1.0877364873886108,0.0,104.0
Fear,stimuli/29M_FE_O.BMP,stimuli/30M_FE_O.BMP,stimuli/29M_FE_O.BMP,stimuli/EmptyFrame.bmp,stimuli/RedFrame.bmp,2,Fear,Male,3,1,1.0,436.5555114746094,436.5555114746094,0.0,440.5525207519531,440.5525207519531,0.0,439.5673522949219,439.5673522949219,0.0,1.0,1.0,0.0,'2',0.936977207660675,0.936977207660675,0.0,105.0
Fear,stimuli/31M_FE_O.BMP,stimuli/31M_FE_O.BMP,stimuli/38M_FE_O.BMP,stimuli/EmptyFrame.bmp,stimuli/RedFrame.bmp,1,Fear,Male,3,1,1.0,440.58154296875,440.58154296875,0.0,444.56365966796875,444.56365966796875,0.0,443.5851135253906,443.5851135253906,0.0,1.0,1.0,0.0,'1',0.9447218775749207,0.9447218775749207,0.0,106.0
Fear,stimuli/09F_FE_O.BMP,stimuli/07F_FE_O.BMP,stimuli/09F_FE_O.BMP,stimuli/EmptyFrame.bmp,stimuli/RedFrame.bmp,2,Fear,Female,3,1,1.0,444.5881652832031,444.5881652832031,0.0,448.58660888671875,448.58660888671875,0.0,447.59320068359375,447.59320068359375,0.0,1.0,1.0,0.0,'2',1.0778683423995972,1.0778683423995972,0.0,107.0
Fear,stimuli/11F_FE_O.BMP,stimuli/12F_FE_O.BMP,stimuli/11F_FE_O.BMP,stimuli/EmptyFrame.bmp,stimuli/RedFrame.bmp,2,Fear,Female,3,1,1.0,448.611328125,448.611328125,0.0,452.6072998046875,452.6072998046875,0.0,451.616943359375,451.616943359375,0.0,1.0,1.0,0.0,'2',0.9138103127479553,0.9138103127479553,0.0,108.0
Fear,stimuli/34M_FE_O.BMP,stimuli/34M_FE_O.BMP,stimuli/33M_FE_O.BMP,stimuli/EmptyFrame.bmp,stimuli/RedFrame.bmp,1,Fear,Male,3,1,1.0,452.636962890625,452.636962890625,0.0,456.6231689453125,456.6231689453125,0.0,455.6398620605469,455.6398620605469,0.0,1.0,1.0,0.0,'1',1.0217936038970947,1.0217936038970947,0.0,109.0

extraInfo
participant,sub021
session,001
date,2025_Jul_22_0914
expName,HaririTask_Ver1
psychopyVersion,3.0.1
frameRate,None
