TrialType,Top,Left,Right,EmptyFrame,SelectedFrame,Correct,Emotion,Gender,TrialLength,FixationLength,n,GCFaceStartTime_mean,GCFaceStartTime_raw,GCFaceStartTime_std,GCPostFaceFixationEndTime_mean,GCPostFaceFixationEndTime_raw,GCPostFaceFixationEndTime_std,GCPostFaceFixationStartTime_mean,GCPostFaceFixationStartTime_raw,GCPostFaceFixationStartTime_std,key_resp_trial.corr_mean,key_resp_trial.corr_raw,key_resp_trial.corr_std,key_resp_trial.keys_raw,key_resp_trial.rt_mean,key_resp_trial.rt_raw,key_resp_trial.rt_std,order
MatchFaces,stimuli/MatchFaces.bmp,stimuli/EmptyFace.bmp,stimuli/EmptyFace.bmp,stimuli/EmptyFrame.bmp,stimuli/EmptyFrame.bmp,Null,None,None,3,1,1.0,15.385626792907715,15.385626792907715,0.0,19.046445846557617,19.046445846557617,0.0,18.048500061035156,18.048500061035156,0.0,0.0,0.0,0.0,,,,,0.0
Anger,stimuli/01F_AN_O.bmp,stimuli/19F_AN_O.BMP,stimuli/01F_AN_O.bmp,stimuli/EmptyFrame.bmp,stimuli/RedFrame.bmp,2,Anger,Female,3,1,1.0,19.263105392456055,19.263105392456055,0.0,23.0627384185791,23.0627384185791,0.0,22.085145950317383,22.085145950317383,0.0,1.0,1.0,0.0,'2',2.0723788738250732,2.0723788738250732,0.0,1.0
Anger,stimuli/02f_an_o.bmp,stimuli/18F_AN_O.BMP,stimuli/02f_an_o.bmp,stimuli/EmptyFrame.bmp,stimuli/RedFrame.bmp,2,Anger,Female,3,1,1.0,23.088298797607422,23.088298797607422,0.0,27.08031463623047,27.08031463623047,0.0,26.099279403686523,26.099279403686523,0.0,1.0,1.0,0.0,'2',2.1132164001464844,2.1132164001464844,0.0,2.0
Anger,stimuli/20M_AN_O.BMP,stimuli/34M_AN_O.BMP,stimuli/20M_AN_O.BMP,stimuli/EmptyFrame.bmp,stimuli/RedFrame.bmp,2,Anger,Male,3,1,1.0,27.105182647705078,27.105182647705078,0.0,31.095149993896484,31.095149993896484,0.0,30.110746383666992,30.110746383666992,0.0,1.0,1.0,0.0,'2',2.362802743911743,2.362802743911743,0.0,3.0
Anger,stimuli/03F_AN_O.bmp,stimuli/03F_AN_O.bmp,stimuli/17F_AN_O.BMP,stimuli/EmptyFrame.bmp,stimuli/RedFrame.bmp,1,Anger,Female,3,1,1.0,31.11964988708496,31.11964988708496,0.0,35.10617446899414,35.10617446899414,0.0,34.12891387939453,34.12891387939453,0.0,1.0,1.0,0.0,'1',2.225783348083496,2.225783348083496,0.0,4.0
Anger,stimuli/21M_AN_O.BMP,stimuli/21M_AN_O.BMP,stimuli/33M_AN_O.BMP,stimuli/EmptyFrame.bmp,stimuli/RedFrame.bmp,1,Anger,Male,3,1,1.0,35.133182525634766,35.133182525634766,0.0,39.119049072265625,39.119049072265625,0.0,38.13964080810547,38.13964080810547,0.0,1.0,1.0,0.0,'1',2.8832855224609375,2.8832855224609375,0.0,5.0
Anger,stimuli/22M_AN_O.BMP,stimuli/32M_AN_O.BMP,stimuli/22M_AN_O.BMP,stimuli/EmptyFrame.bmp,stimuli/RedFrame.bmp,2,Anger,Male,3,1,1.0,39.14139938354492,39.14139938354492,0.0,43.13441467285156,43.13441467285156,0.0,42.141666412353516,42.141666412353516,0.0,1.0,1.0,0.0,'2',1.4547388553619385,1.4547388553619385,0.0,6.0
Anger,stimuli/23M_AN_O.BMP,stimuli/23M_AN_O.BMP,stimuli/31M_AN_O.BMP,stimuli/EmptyFrame.bmp,stimuli/RedFrame.bmp,1,Anger,Male,3,1,1.0,43.162269592285156,43.162269592285156,0.0,47.152957916259766,47.152957916259766,0.0,46.16109848022461,46.16109848022461,0.0,1.0,1.0,0.0,'1',1.855859398841858,1.855859398841858,0.0,7.0
Anger,stimuli/05F_AN_O.bmp,stimuli/05F_AN_O.bmp,stimuli/16F_AN_O.BMP,stimuli/EmptyFrame.bmp,stimuli/RedFrame.bmp,1,Anger,Female,3,1,1.0,47.18837356567383,47.18837356567383,0.0,51.173458099365234,51.173458099365234,0.0,50.18934631347656,50.18934631347656,0.0,1.0,1.0,0.0,'1',2.4547035694122314,2.4547035694122314,0.0,8.0
Anger,stimuli/06F_AN_O.bmp,stimuli/15F_AN_O.BMP,stimuli/06F_AN_O.bmp,stimuli/EmptyFrame.bmp,stimuli/RedFrame.bmp,2,Anger,Female,3,1,1.0,51.20517349243164,51.20517349243164,0.0,55.190521240234375,55.190521240234375,0.0,54.20863342285156,54.20863342285156,0.0,1.0,1.0,0.0,'2',2.7166872024536133,2.7166872024536133,0.0,9.0
Anger,stimuli/24M_AN_O.BMP,stimuli/24M_AN_O.BMP,stimuli/30M_AN_O.BMP,stimuli/EmptyFrame.bmp,stimuli/RedFrame.bmp,1,Anger,Male,3,1,1.0,55.21394729614258,55.21394729614258,0.0,59.20615768432617,59.20615768432617,0.0,58.2371940612793,58.2371940612793,0.0,1.0,1.0,0.0,'1',2.9766623973846436,2.9766623973846436,0.0,10.0
MatchShape,stimuli/MatchShapes.bmp,stimuli/EmptyFace.bmp,stimuli/EmptyFace.bmp,stimuli/EmptyFrame.bmp,stimuli/EmptyFrame.bmp,Null,None,None,3,1,1.0,59.23267364501953,59.23267364501953,0.0,63.211151123046875,63.211151123046875,0.0,62.22271728515625,62.22271728515625,0.0,0.0,0.0,0.0,,,,,11.0
Shape,stimuli/horizontal.bmp,stimuli/horizontal.bmp,stimuli/circle.bmp,stimuli/EmptyFrame.bmp,stimuli/RedFrame.bmp,1,Shape,None,3,1,1.0,63.240638732910156,63.240638732910156,0.0,67.23785400390625,67.23785400390625,0.0,66.23878479003906,66.23878479003906,0.0,1.0,1.0,0.0,'1',0.9693151712417603,0.9693151712417603,0.0,12.0
Shape,stimuli/vertical.bmp,stimuli/horizontal.bmp,stimuli/vertical.bmp,stimuli/EmptyFrame.bmp,stimuli/RedFrame.bmp,2,Shape,None,3,1,1.0,67.26470184326172,67.26470184326172,0.0,71.25455474853516,71.25455474853516,0.0,70.26526641845703,70.26526641845703,0.0,1.0,1.0,0.0,'2',1.082363247871399,1.082363247871399,0.0,13.0
Shape,stimuli/horizontal.bmp,stimuli/horizontal.bmp,stimuli/vertical.bmp,stimuli/EmptyFrame.bmp,stimuli/RedFrame.bmp,1,Shape,None,3,1,1.0,71.28003692626953,71.28003692626953,0.0,75.26925659179688,75.26925659179688,0.0,74.27732849121094,74.27732849121094,0.0,1.0,1.0,0.0,'1',2.080000400543213,2.080000400543213,0.0,14.0
Shape,stimuli/horizontal.bmp,stimuli/circle.bmp,stimuli/horizontal.bmp,stimuli/EmptyFrame.bmp,stimuli/RedFrame.bmp,2,Shape,None,3,1,1.0,75.28905487060547,75.28905487060547,0.0,79.2835693359375,79.2835693359375,0.0,78.2921142578125,78.2921142578125,0.0,1.0,1.0,0.0,'2',1.9580092430114746,1.9580092430114746,0.0,15.0
Shape,stimuli/circle.bmp,stimuli/circle.bmp,stimuli/vertical.bmp,stimuli/EmptyFrame.bmp,stimuli/RedFrame.bmp,1,Shape,None,3,1,1.0,79.3086929321289,79.3086929321289,0.0,83.30007934570312,83.30007934570312,0.0,82.31121826171875,82.31121826171875,0.0,1.0,1.0,0.0,'1',2.2174172401428223,2.2174172401428223,0.0,16.0
Shape,stimuli/circle.bmp,stimuli/circle.bmp,stimuli/horizontal.bmp,stimuli/EmptyFrame.bmp,stimuli/RedFrame.bmp,1,Shape,None,3,1,1.0,83.32152557373047,83.32152557373047,0.0,87.31219482421875,87.31219482421875,0.0,86.32909393310547,86.32909393310547,0.0,1.0,1.0,0.0,'1',2.3557019233703613,2.3557019233703613,0.0,17.0
Shape,stimuli/vertical.bmp,stimuli/circle.bmp,stimuli/vertical.bmp,stimuli/EmptyFrame.bmp,stimuli/RedFrame.bmp,2,Shape,None,3,1,1.0,87.33524322509766,87.33524322509766,0.0,91.33026123046875,91.33026123046875,0.0,90.34839630126953,90.34839630126953,0.0,1.0,1.0,0.0,'2',2.8751344680786133,2.8751344680786133,0.0,18.0
Shape,stimuli/circle.bmp,stimuli/vertical.bmp,stimuli/circle.bmp,stimuli/EmptyFrame.bmp,stimuli/RedFrame.bmp,2,Shape,None,3,1,1.0,91.35419464111328,91.35419464111328,0.0,95.35350799560547,95.35350799560547,0.0,94.36492919921875,94.36492919921875,0.0,1.0,1.0,0.0,'2',2.1703712940216064,2.1703712940216064,0.0,19.0
Shape,stimuli/vertical.bmp,stimuli/horizontal.bmp,stimuli/vertical.bmp,stimuli/EmptyFrame.bmp,stimuli/RedFrame.bmp,2,Shape,None,3,1,1.0,95.37313842773438,95.37313842773438,0.0,99.36495208740234,99.36495208740234,0.0,98.3836441040039,98.3836441040039,0.0,1.0,1.0,0.0,'2',2.941128730773926,2.941128730773926,0.0,20.0
Shape,stimuli/vertical.bmp,stimuli/vertical.bmp,stimuli/circle.bmp,stimuli/EmptyFrame.bmp,stimuli/RedFrame.bmp,1,Shape,None,3,1,1.0,99.38867950439453,99.38867950439453,0.0,103.39263153076172,103.39263153076172,0.0,102.38966369628906,102.38966369628906,0.0,1.0,1.0,0.0,'1',1.1967617273330688,1.1967617273330688,0.0,21.0
MatchFaces,stimuli/MatchFaces.bmp,stimuli/EmptyFace.bmp,stimuli/EmptyFace.bmp,stimuli/EmptyFrame.bmp,stimuli/EmptyFrame.bmp,Null,None,None,3,1,1.0,103.59563446044922,103.59563446044922,0.0,107.39501953125,107.39501953125,0.0,106.40734100341797,106.40734100341797,0.0,0.0,0.0,0.0,,,,,22.0
Neutral,stimuli/20M_NE_C.BMP,stimuli/21M_NE_C.BMP,stimuli/20M_NE_C.BMP,stimuli/EmptyFrame.bmp,stimuli/RedFrame.bmp,2,Neutral,Male,3,1,1.0,107.46271514892578,107.46271514892578,0.0,111.40876770019531,111.40876770019531,0.0,110.42733001708984,110.42733001708984,0.0,1.0,1.0,0.0,'2',1.7964367866516113,1.7964367866516113,0.0,23.0
Neutral,stimuli/01F_NE_C.bmp,stimuli/01F_NE_C.bmp,stimuli/02F_NE_C.bmp,stimuli/EmptyFrame.bmp,stimuli/RedFrame.bmp,1,Neutral,Female,3,1,1.0,111.43461608886719,111.43461608886719,0.0,115.42720031738281,115.42720031738281,0.0,114.45018005371094,114.45018005371094,0.0,1.0,1.0,0.0,'1',2.9437763690948486,2.9437763690948486,0.0,24.0
Neutral,stimuli/22M_NE_C.BMP,stimuli/23M_NE_C.BMP,stimuli/22M_NE_C.BMP,stimuli/EmptyFrame.bmp,stimuli/RedFrame.bmp,2,Neutral,Male,3,1,1.0,115.4566650390625,115.4566650390625,0.0,119.45276641845703,119.45276641845703,0.0,118.46052551269531,118.46052551269531,0.0,1.0,1.0,0.0,'2',2.008939504623413,2.008939504623413,0.0,25.0
Neutral,stimuli/24M_NE_C.BMP,stimuli/24M_NE_C.BMP,stimuli/25M_NE_C.BMP,stimuli/EmptyFrame.bmp,stimuli/RedFrame.bmp,1,Neutral,Male,3,1,1.0,119.47825622558594,119.47825622558594,0.0,123.47234344482422,123.47234344482422,0.0,122.48753356933594,122.48753356933594,0.0,1.0,1.0,0.0,'1',2.1331045627593994,2.1331045627593994,0.0,26.0
Neutral,stimuli/03F_NE_C.bmp,stimuli/05F_NE_C.bmp,stimuli/03F_NE_C.bmp,stimuli/EmptyFrame.bmp,stimuli/RedFrame.bmp,2,Neutral,Female,3,1,1.0,123.50015258789062,123.50015258789062,0.0,127.47415924072266,127.47415924072266,0.0,126.47972869873047,126.47972869873047,0.0,0.0,0.0,0.0,,,,,27.0
Neutral,stimuli/26M_NE_C.BMP,stimuli/26M_NE_C.BMP,stimuli/27M_NE_C.BMP,stimuli/EmptyFrame.bmp,stimuli/RedFrame.bmp,1,Neutral,Male,3,1,1.0,127.50515747070312,127.50515747070312,0.0,131.49510192871094,131.49510192871094,0.0,130.51011657714844,130.51011657714844,0.0,1.0,1.0,0.0,'1',2.393855094909668,2.393855094909668,0.0,28.0
Neutral,stimuli/06F_NE_C.bmp,stimuli/07F_NE_C.BMP,stimuli/06F_NE_C.bmp,stimuli/EmptyFrame.bmp,stimuli/RedFrame.bmp,2,Neutral,Female,3,1,1.0,131.5194091796875,131.5194091796875,0.0,135.51080322265625,135.51080322265625,0.0,134.5336456298828,134.5336456298828,0.0,1.0,1.0,0.0,'2',2.214764356613159,2.214764356613159,0.0,29.0
Neutral,stimuli/08F_NE_C.BMP,stimuli/08F_NE_C.BMP,stimuli/09F_NE_C.BMP,stimuli/EmptyFrame.bmp,stimuli/RedFrame.bmp,1,Neutral,Female,3,1,1.0,135.5355987548828,135.5355987548828,0.0,139.53187561035156,139.53187561035156,0.0,138.5378875732422,138.5378875732422,0.0,1.0,1.0,0.0,'1',2.1933515071868896,2.1933515071868896,0.0,30.0
Neutral,stimuli/28M_NE_C.BMP,stimuli/29M_NE_C.BMP,stimuli/28M_NE_C.BMP,stimuli/EmptyFrame.bmp,stimuli/RedFrame.bmp,2,Neutral,Male,3,1,1.0,139.55499267578125,139.55499267578125,0.0,143.54481506347656,143.54481506347656,0.0,142.5621337890625,142.5621337890625,0.0,0.0,0.0,0.0,'1',2.3306663036346436,2.3306663036346436,0.0,31.0
Neutral,stimuli/10F_NE_C.BMP,stimuli/10F_NE_C.BMP,stimuli/06F_NE_C.bmp,stimuli/EmptyFrame.bmp,stimuli/RedFrame.bmp,1,Neutral,Female,3,1,1.0,143.56871032714844,143.56871032714844,0.0,147.57472229003906,147.57472229003906,0.0,146.58233642578125,146.58233642578125,0.0,1.0,1.0,0.0,'1',1.9108585119247437,1.9108585119247437,0.0,32.0
MatchFaces,stimuli/MatchFaces.bmp,stimuli/EmptyFace.bmp,stimuli/EmptyFace.bmp,stimuli/EmptyFrame.bmp,stimuli/EmptyFrame.bmp,Null,None,None,3,1,1.0,147.7723388671875,147.7723388671875,0.0,151.58033752441406,151.58033752441406,0.0,150.59207153320312,150.59207153320312,0.0,0.0,0.0,0.0,,,,,33.0
Fear,stimuli/07F_FE_O.BMP,stimuli/07F_FE_O.BMP,stimuli/14F_FE_O.BMP,stimuli/EmptyFrame.bmp,stimuli/RedFrame.bmp,1,Fear,Female,3,1,1.0,151.6489715576172,151.6489715576172,0.0,155.6004638671875,155.6004638671875,0.0,154.6079864501953,154.6079864501953,0.0,1.0,1.0,0.0,'1',1.506177544593811,1.506177544593811,0.0,34.0
Fear,stimuli/25M_FE_O.BMP,stimuli/29M_FE_O.BMP,stimuli/25M_FE_O.BMP,stimuli/EmptyFrame.bmp,stimuli/RedFrame.bmp,2,Fear,Male,3,1,1.0,155.62249755859375,155.62249755859375,0.0,159.6266326904297,159.6266326904297,0.0,158.6271209716797,158.6271209716797,0.0,1.0,1.0,0.0,'2',1.0673513412475586,1.0673513412475586,0.0,35.0
Fear,stimuli/26M_FE_O.BMP,stimuli/26M_FE_O.BMP,stimuli/28M_FE_O.BMP,stimuli/EmptyFrame.bmp,stimuli/RedFrame.bmp,1,Fear,Male,3,1,1.0,159.67027282714844,159.67027282714844,0.0,163.64208984375,163.64208984375,0.0,162.65785217285156,162.65785217285156,0.0,1.0,1.0,0.0,'1',1.1240979433059692,1.1240979433059692,0.0,36.0
Fear,stimuli/08F_FE_O.BMP,stimuli/13F_FE_O.BMP,stimuli/08F_FE_O.BMP,stimuli/EmptyFrame.bmp,stimuli/RedFrame.bmp,2,Fear,Female,3,1,1.0,163.66256713867188,163.66256713867188,0.0,167.6691131591797,167.6691131591797,0.0,166.67393493652344,166.67393493652344,0.0,1.0,1.0,0.0,'2',0.8803954124450684,0.8803954124450684,0.0,37.0
Fear,stimuli/09F_FE_O.BMP,stimuli/09F_FE_O.BMP,stimuli/12F_FE_O.BMP,stimuli/EmptyFrame.bmp,stimuli/RedFrame.bmp,1,Fear,Female,3,1,1.0,167.7006378173828,167.7006378173828,0.0,171.6940155029297,171.6940155029297,0.0,170.6953887939453,170.6953887939453,0.0,1.0,1.0,0.0,'1',1.6449477672576904,1.6449477672576904,0.0,38.0
Fear,stimuli/27M_FE_O.BMP,stimuli/26M_FE_O.BMP,stimuli/27M_FE_O.BMP,stimuli/EmptyFrame.bmp,stimuli/RedFrame.bmp,2,Fear,Male,3,1,1.0,171.7192840576172,171.7192840576172,0.0,175.719482421875,175.719482421875,0.0,174.7308349609375,174.7308349609375,0.0,1.0,1.0,0.0,'2',2.285074234008789,2.285074234008789,0.0,39.0
Fear,stimuli/28M_FE_O.BMP,stimuli/28M_FE_O.BMP,stimuli/25M_FE_O.BMP,stimuli/EmptyFrame.bmp,stimuli/RedFrame.bmp,1,Fear,Male,3,1,1.0,175.74520874023438,175.74520874023438,0.0,179.7400665283203,179.7400665283203,0.0,178.75743103027344,178.75743103027344,0.0,1.0,1.0,0.0,'1',2.3347630500793457,2.3347630500793457,0.0,40.0
Fear,stimuli/10F_FE_O.BMP,stimuli/11F_FE_O.BMP,stimuli/10F_FE_O.BMP,stimuli/EmptyFrame.bmp,stimuli/RedFrame.bmp,2,Fear,Female,3,1,1.0,179.76593017578125,179.76593017578125,0.0,183.75704956054688,183.75704956054688,0.0,182.7754669189453,182.7754669189453,0.0,1.0,1.0,0.0,'2',2.6179287433624268,2.6179287433624268,0.0,41.0
Fear,stimuli/29M_FE_O.BMP,stimuli/29M_FE_O.BMP,stimuli/24M_FE_O.BMP,stimuli/EmptyFrame.bmp,stimuli/RedFrame.bmp,1,Fear,Male,3,1,1.0,183.77993774414062,183.77993774414062,0.0,187.76040649414062,187.76040649414062,0.0,186.76963806152344,186.76963806152344,0.0,0.0,0.0,0.0,,,,,42.0
Fear,stimuli/11F_FE_O.BMP,stimuli/10F_FE_O.BMP,stimuli/11F_FE_O.BMP,stimuli/EmptyFrame.bmp,stimuli/RedFrame.bmp,2,Fear,Female,3,1,1.0,187.79273986816406,187.79273986816406,0.0,191.7753143310547,191.7753143310547,0.0,190.78823852539062,190.78823852539062,0.0,1.0,1.0,0.0,'2',2.045850992202759,2.045850992202759,0.0,43.0
MatchFaces,stimuli/MatchFaces.bmp,stimuli/EmptyFace.bmp,stimuli/EmptyFace.bmp,stimuli/EmptyFrame.bmp,stimuli/EmptyFrame.bmp,Null,None,None,3,1,1.0,191.99708557128906,191.99708557128906,0.0,195.78260803222656,195.78260803222656,0.0,194.7940673828125,194.7940673828125,0.0,0.0,0.0,0.0,,,,,44.0
Happy,stimuli/19F_HA_O.BMP,stimuli/19F_HA_O.BMP,stimuli/18F_HA_O.BMP,stimuli/EmptyFrame.bmp,stimuli/RedFrame.bmp,1,Happy,Female,3,1,1.0,195.84494018554688,195.84494018554688,0.0,199.80287170410156,199.80287170410156,0.0,198.81336975097656,198.81336975097656,0.0,1.0,1.0,0.0,'1',1.6531933546066284,1.6531933546066284,0.0,45.0
Happy,stimuli/17F_HA_O.BMP,stimuli/16F_HA_O.BMP,stimuli/17F_HA_O.BMP,stimuli/EmptyFrame.bmp,stimuli/RedFrame.bmp,2,Happy,Female,3,1,1.0,199.82513427734375,199.82513427734375,0.0,203.82315063476562,203.82315063476562,0.0,202.82994079589844,202.82994079589844,0.0,1.0,1.0,0.0,'2',1.3523906469345093,1.3523906469345093,0.0,46.0
Happy,stimuli/43M_HA_O.BMP,stimuli/42M_HA_O.BMP,stimuli/43M_HA_O.BMP,stimuli/EmptyFrame.bmp,stimuli/RedFrame.bmp,2,Happy,Male,3,1,1.0,203.84353637695312,203.84353637695312,0.0,207.83462524414062,207.83462524414062,0.0,206.8604736328125,206.8604736328125,0.0,1.0,1.0,0.0,'2',1.513586163520813,1.513586163520813,0.0,47.0
Happy,stimuli/41M_HA_O.BMP,stimuli/41M_HA_O.BMP,stimuli/40M_HA_O.BMP,stimuli/EmptyFrame.bmp,stimuli/RedFrame.bmp,1,Happy,Male,3,1,1.0,207.86117553710938,207.86117553710938,0.0,211.85948181152344,211.85948181152344,0.0,210.86537170410156,210.86537170410156,0.0,1.0,1.0,0.0,'1',1.9559775590896606,1.9559775590896606,0.0,48.0
Happy,stimuli/15F_HA_O.BMP,stimuli/15F_HA_O.BMP,stimuli/14F_HA_O.BMP,stimuli/EmptyFrame.bmp,stimuli/RedFrame.bmp,1,Happy,Female,3,1,1.0,211.88401794433594,211.88401794433594,0.0,215.87841796875,215.87841796875,0.0,214.88856506347656,214.88856506347656,0.0,1.0,1.0,0.0,'1',1.4727083444595337,1.4727083444595337,0.0,49.0
Happy,stimuli/13F_HA_O.BMP,stimuli/13F_HA_O.BMP,stimuli/12F_HA_O.BMP,stimuli/EmptyFrame.bmp,stimuli/RedFrame.bmp,1,Happy,Female,3,1,1.0,215.9039764404297,215.9039764404297,0.0,219.88320922851562,219.88320922851562,0.0,218.89453125,218.89453125,0.0,0.0,0.0,0.0,,,,,50.0
Happy,stimuli/39M_HA_O.BMP,stimuli/38M_HA_O.BMP,stimuli/39M_HA_O.BMP,stimuli/EmptyFrame.bmp,stimuli/RedFrame.bmp,2,Happy,Male,3,1,1.0,219.91265869140625,219.91265869140625,0.0,223.90200805664062,223.90200805664062,0.0,222.91123962402344,222.91123962402344,0.0,1.0,1.0,0.0,'2',1.097206950187683,1.097206950187683,0.0,51.0
Happy,stimuli/37M_HA_O.BMP,stimuli/37M_HA_O.BMP,stimuli/36M_HA_O.BMP,stimuli/EmptyFrame.bmp,stimuli/RedFrame.bmp,1,Happy,Male,3,1,1.0,223.92723083496094,223.92723083496094,0.0,227.91244506835938,227.91244506835938,0.0,226.9397430419922,226.9397430419922,0.0,1.0,1.0,0.0,'1',1.5773844718933105,1.5773844718933105,0.0,52.0
Happy,stimuli/35M_HA_O.BMP,stimuli/34M_HA_O.BMP,stimuli/35M_HA_O.BMP,stimuli/EmptyFrame.bmp,stimuli/RedFrame.bmp,2,Happy,Male,3,1,1.0,227.9383544921875,227.9383544921875,0.0,231.93270874023438,231.93270874023438,0.0,230.93858337402344,230.93858337402344,0.0,1.0,1.0,0.0,'2',1.3388735055923462,1.3388735055923462,0.0,53.0
Happy,stimuli/11F_HA_O.BMP,stimuli/10F_HA_O.BMP,stimuli/11F_HA_O.BMP,stimuli/EmptyFrame.bmp,stimuli/RedFrame.bmp,2,Happy,Female,3,1,1.0,231.95460510253906,231.95460510253906,0.0,235.9462432861328,235.9462432861328,0.0,234.96180725097656,234.96180725097656,0.0,1.0,1.0,0.0,'2',0.7989490032196045,0.7989490032196045,0.0,54.0
Match Shape,stimuli/MatchShapes.bmp,stimuli/EmptyFace.bmp,stimuli/EmptyFace.bmp,stimuli/EmptyFrame.bmp,stimuli/EmptyFrame.bmp,Null,None,None,3,1,1.0,235.96969604492188,235.96969604492188,0.0,239.94863891601562,239.94863891601562,0.0,238.958740234375,238.958740234375,0.0,0.0,0.0,0.0,,,,,55.0
Shape,stimuli/circle.bmp,stimuli/vertical.bmp,stimuli/circle.bmp,stimuli/EmptyFrame.bmp,stimuli/RedFrame.bmp,2,Shape,None,3,1,1.0,239.98104858398438,239.98104858398438,0.0,243.9597930908203,243.9597930908203,0.0,242.97674560546875,242.97674560546875,0.0,1.0,1.0,0.0,'2',0.7306678891181946,0.7306678891181946,0.0,56.0
Shape,stimuli/horizontal.bmp,stimuli/circle.bmp,stimuli/horizontal.bmp,stimuli/EmptyFrame.bmp,stimuli/RedFrame.bmp,2,Shape,None,3,1,1.0,243.98397827148438,243.98397827148438,0.0,247.9793243408203,247.9793243408203,0.0,246.98519897460938,246.98519897460938,0.0,1.0,1.0,0.0,'2',1.0960179567337036,1.0960179567337036,0.0,57.0
Shape,stimuli/vertical.bmp,stimuli/vertical.bmp,stimuli/horizontal.bmp,stimuli/EmptyFrame.bmp,stimuli/RedFrame.bmp,1,Shape,None,3,1,1.0,248.00123596191406,248.00123596191406,0.0,252.00135803222656,252.00135803222656,0.0,251.01060485839844,251.01060485839844,0.0,1.0,1.0,0.0,'1',1.3737231492996216,1.3737231492996216,0.0,58.0
Shape,stimuli/horizontal.bmp,stimuli/circle.bmp,stimuli/horizontal.bmp,stimuli/EmptyFrame.bmp,stimuli/RedFrame.bmp,2,Shape,None,3,1,1.0,252.02622985839844,252.02622985839844,0.0,256.011962890625,256.011962890625,0.0,255.02513122558594,255.02513122558594,0.0,1.0,1.0,0.0,'2',0.8236039280891418,0.8236039280891418,0.0,59.0
Shape,stimuli/horizontal.bmp,stimuli/horizontal.bmp,stimuli/vertical.bmp,stimuli/EmptyFrame.bmp,stimuli/RedFrame.bmp,1,Shape,None,3,1,1.0,256.0318603515625,256.0318603515625,0.0,260.02288818359375,260.02288818359375,0.0,259.04345703125,259.04345703125,0.0,1.0,1.0,0.0,'1',1.1314051151275635,1.1314051151275635,0.0,60.0
Shape,stimuli/vertical.bmp,stimuli/vertical.bmp,stimuli/circle.bmp,stimuli/EmptyFrame.bmp,stimuli/RedFrame.bmp,1,Shape,None,3,1,1.0,260.04107666015625,260.04107666015625,0.0,264.0418395996094,264.0418395996094,0.0,263.0464172363281,263.0464172363281,0.0,1.0,1.0,0.0,'1',1.004703402519226,1.004703402519226,0.0,61.0
Shape,stimuli/circle.bmp,stimuli/horizontal.bmp,stimuli/circle.bmp,stimuli/EmptyFrame.bmp,stimuli/RedFrame.bmp,2,Shape,None,3,1,1.0,264.0599060058594,264.0599060058594,0.0,268.04815673828125,268.04815673828125,0.0,267.0635070800781,267.0635070800781,0.0,0.0,0.0,0.0,,,,,62.0
Shape,stimuli/circle.bmp,stimuli/vertical.bmp,stimuli/circle.bmp,stimuli/EmptyFrame.bmp,stimuli/RedFrame.bmp,2,Shape,None,3,1,1.0,268.0726623535156,268.0726623535156,0.0,272.060302734375,272.060302734375,0.0,271.0661315917969,271.0661315917969,0.0,0.0,0.0,0.0,,,,,63.0
Shape,stimuli/vertical.bmp,stimuli/vertical.bmp,stimuli/horizontal.bmp,stimuli/EmptyFrame.bmp,stimuli/RedFrame.bmp,1,Shape,None,3,1,1.0,272.0959167480469,272.0959167480469,0.0,276.0626220703125,276.0626220703125,0.0,275.07177734375,275.07177734375,0.0,0.0,0.0,0.0,,,,,64.0
Shape,stimuli/horizontal.bmp,stimuli/horizontal.bmp,stimuli/circle.bmp,stimuli/EmptyFrame.bmp,stimuli/RedFrame.bmp,1,Shape,None,3,1,1.0,276.0882263183594,276.0882263183594,0.0,280.08251953125,280.08251953125,0.0,279.0960998535156,279.0960998535156,0.0,1.0,1.0,0.0,'1',0.6742486953735352,0.6742486953735352,0.0,65.0
MatchFaces,stimuli/MatchFaces.bmp,stimuli/EmptyFace.bmp,stimuli/EmptyFace.bmp,stimuli/EmptyFrame.bmp,stimuli/EmptyFrame.bmp,Null,None,None,3,1,1.0,280.3619384765625,280.3619384765625,0.0,284.0849609375,284.0849609375,0.0,283.09466552734375,283.09466552734375,0.0,0.0,0.0,0.0,,,,,66.0
Anger,stimuli/42M_AN_O.BMP,stimuli/42M_AN_O.BMP,stimuli/43M_AN_O.BMP,stimuli/EmptyFrame.bmp,stimuli/RedFrame.bmp,1,Anger,Male,3,1,1.0,284.1585693359375,284.1585693359375,0.0,288.1068420410156,288.1068420410156,0.0,287.1131896972656,287.1131896972656,0.0,1.0,1.0,0.0,'1',1.2836345434188843,1.2836345434188843,0.0,67.0
Anger,stimuli/07F_AN_O.BMP,stimuli/07F_AN_O.BMP,stimuli/14F_AN_O.BMP,stimuli/EmptyFrame.bmp,stimuli/RedFrame.bmp,1,Anger,Female,3,1,1.0,288.1308898925781,288.1308898925781,0.0,292.124267578125,292.124267578125,0.0,291.13427734375,291.13427734375,0.0,1.0,1.0,0.0,'1',1.0632596015930176,1.0632596015930176,0.0,68.0
Anger,stimuli/40M_AN_O.BMP,stimuli/41M_AN_O.BMP,stimuli/40M_AN_O.BMP,stimuli/EmptyFrame.bmp,stimuli/RedFrame.bmp,2,Anger,Male,3,1,1.0,292.1520690917969,292.1520690917969,0.0,296.13421630859375,296.13421630859375,0.0,295.149658203125,295.149658203125,0.0,1.0,1.0,0.0,'2',0.8030170202255249,0.8030170202255249,0.0,69.0
Anger,stimuli/38M_AN_O.BMP,stimuli/39M_AN_O.BMP,stimuli/38M_AN_O.BMP,stimuli/EmptyFrame.bmp,stimuli/RedFrame.bmp,2,Anger,Male,3,1,1.0,296.15802001953125,296.15802001953125,0.0,300.1522216796875,300.1522216796875,0.0,299.1641845703125,299.1641845703125,0.0,1.0,1.0,0.0,'2',1.194942593574524,1.194942593574524,0.0,70.0
Anger,stimuli/08F_AN_O.BMP,stimuli/08F_AN_O.BMP,stimuli/13F_AN_O.BMP,stimuli/EmptyFrame.bmp,stimuli/RedFrame.bmp,1,Anger,Female,3,1,1.0,300.1761779785156,300.1761779785156,0.0,304.1676330566406,304.1676330566406,0.0,303.17919921875,303.17919921875,0.0,1.0,1.0,0.0,'1',1.0294090509414673,1.0294090509414673,0.0,71.0
Anger,stimuli/36M_AN_O.BMP,stimuli/37M_AN_O.BMP,stimuli/36M_AN_O.BMP,stimuli/EmptyFrame.bmp,stimuli/RedFrame.bmp,2,Anger,Male,3,1,1.0,304.1926574707031,304.1926574707031,0.0,308.1858825683594,308.1858825683594,0.0,307.1938781738281,307.1938781738281,0.0,1.0,1.0,0.0,'2',0.8027212023735046,0.8027212023735046,0.0,72.0
Anger,stimuli/09F_AN_O.BMP,stimuli/12F_AN_O.BMP,stimuli/09F_AN_O.BMP,stimuli/EmptyFrame.bmp,stimuli/RedFrame.bmp,2,Anger,Female,3,1,1.0,308.2082824707031,308.2082824707031,0.0,312.20513916015625,312.20513916015625,0.0,311.2162780761719,311.2162780761719,0.0,1.0,1.0,0.0,'2',0.7120565176010132,0.7120565176010132,0.0,73.0
Anger,stimuli/34M_AN_O.BMP,stimuli/35M_AN_O.BMP,stimuli/34M_AN_O.BMP,stimuli/EmptyFrame.bmp,stimuli/RedFrame.bmp,2,Anger,Male,3,1,1.0,312.2298889160156,312.2298889160156,0.0,316.2156066894531,316.2156066894531,0.0,315.2281494140625,315.2281494140625,0.0,1.0,1.0,0.0,'2',1.9018350839614868,1.9018350839614868,0.0,74.0
Anger,stimuli/10F_AN_O.BMP,stimuli/10F_AN_O.BMP,stimuli/11F_AN_O.BMP,stimuli/EmptyFrame.bmp,stimuli/RedFrame.bmp,1,Anger,Female,3,1,1.0,316.2378234863281,316.2378234863281,0.0,320.22845458984375,320.22845458984375,0.0,319.2384033203125,319.2384033203125,0.0,1.0,1.0,0.0,'1',1.5370060205459595,1.5370060205459595,0.0,75.0
Anger,stimuli/12F_AN_O.BMP,stimuli/12F_AN_O.BMP,stimuli/13F_AN_O.BMP,stimuli/EmptyFrame.bmp,stimuli/RedFrame.bmp,1,Anger,Female,3,1,1.0,320.253662109375,320.253662109375,0.0,324.2496032714844,324.2496032714844,0.0,323.2630615234375,323.2630615234375,0.0,1.0,1.0,0.0,'1',2.9525303840637207,2.9525303840637207,0.0,76.0
MatchFaces,stimuli/MatchFaces.bmp,stimuli/EmptyFace.bmp,stimuli/EmptyFace.bmp,stimuli/EmptyFrame.bmp,stimuli/EmptyFrame.bmp,Null,None,None,3,1,1.0,324.4225769042969,324.4225769042969,0.0,328.25048828125,328.25048828125,0.0,327.2683410644531,327.2683410644531,0.0,0.0,0.0,0.0,,,,,77.0
Happy,stimuli/20M_HA_O.BMP,stimuli/21M_HA_O.BMP,stimuli/20M_HA_O.BMP,stimuli/EmptyFrame.bmp,stimuli/RedFrame.bmp,2,Happy,Male,3,1,1.0,328.3132019042969,328.3132019042969,0.0,332.2830505371094,332.2830505371094,0.0,331.2724914550781,331.2724914550781,0.0,1.0,1.0,0.0,'2',1.065438151359558,1.065438151359558,0.0,78.0
Happy,stimuli/01F_HA_O.bmp,stimuli/01F_HA_O.bmp,stimuli/02F_HA_O.bmp,stimuli/EmptyFrame.bmp,stimuli/RedFrame.bmp,1,Happy,Female,3,1,1.0,332.3106689453125,332.3106689453125,0.0,336.30029296875,336.30029296875,0.0,335.3199157714844,335.3199157714844,0.0,1.0,1.0,0.0,'1',1.8193751573562622,1.8193751573562622,0.0,79.0
Happy,stimuli/22M_HA_O.BMP,stimuli/23M_HA_O.BMP,stimuli/22M_HA_O.BMP,stimuli/EmptyFrame.bmp,stimuli/RedFrame.bmp,2,Happy,Male,3,1,1.0,336.3235778808594,336.3235778808594,0.0,340.31744384765625,340.31744384765625,0.0,339.3361511230469,339.3361511230469,0.0,1.0,1.0,0.0,'2',1.871847152709961,1.871847152709961,0.0,80.0
Happy,stimuli/24M_HA_O.BMP,stimuli/24M_HA_O.BMP,stimuli/25M_HA_O.BMP,stimuli/EmptyFrame.bmp,stimuli/RedFrame.bmp,1,Happy,Male,3,1,1.0,340.33905029296875,340.33905029296875,0.0,344.33599853515625,344.33599853515625,0.0,343.3511962890625,343.3511962890625,0.0,1.0,1.0,0.0,'1',1.9410418272018433,1.9410418272018433,0.0,81.0
Happy,stimuli/03F_HA_O.bmp,stimuli/05F_HA_O.bmp,stimuli/03F_HA_O.bmp,stimuli/EmptyFrame.bmp,stimuli/RedFrame.bmp,2,Happy,Female,3,1,1.0,344.3608703613281,344.3608703613281,0.0,348.35687255859375,348.35687255859375,0.0,347.3732604980469,347.3732604980469,0.0,1.0,1.0,0.0,'2',2.2648768424987793,2.2648768424987793,0.0,82.0
Happy,stimuli/26M_HA_O.BMP,stimuli/26M_HA_O.BMP,stimuli/27M_HA_O.BMP,stimuli/EmptyFrame.bmp,stimuli/RedFrame.bmp,1,Happy,Male,3,1,1.0,348.3767395019531,348.3767395019531,0.0,352.3672790527344,352.3672790527344,0.0,351.3935546875,351.3935546875,0.0,1.0,1.0,0.0,'1',2.6542561054229736,2.6542561054229736,0.0,83.0
Happy,stimuli/06F_HA_O.bmp,stimuli/07F_HA_O.BMP,stimuli/06F_HA_O.bmp,stimuli/EmptyFrame.bmp,stimuli/RedFrame.bmp,2,Happy,Female,3,1,1.0,352.390625,352.390625,0.0,356.38446044921875,356.38446044921875,0.0,355.39337158203125,355.39337158203125,0.0,1.0,1.0,0.0,'2',2.350738048553467,2.350738048553467,0.0,84.0
Happy,stimuli/08F_HA_O.BMP,stimuli/08F_HA_O.BMP,stimuli/09F_HA_O.BMP,stimuli/EmptyFrame.bmp,stimuli/RedFrame.bmp,1,Happy,Female,3,1,1.0,356.40673828125,356.40673828125,0.0,360.4000244140625,360.4000244140625,0.0,359.4164733886719,359.4164733886719,0.0,1.0,1.0,0.0,'1',2.599250078201294,2.599250078201294,0.0,85.0
Happy,stimuli/28M_HA_O.BMP,stimuli/29M_HA_O.BMP,stimuli/28M_HA_O.BMP,stimuli/EmptyFrame.bmp,stimuli/RedFrame.bmp,2,Happy,Male,3,1,1.0,360.4246826171875,360.4246826171875,0.0,364.4223327636719,364.4223327636719,0.0,363.4272155761719,363.4272155761719,0.0,1.0,1.0,0.0,'2',2.483853816986084,2.483853816986084,0.0,86.0
Happy,stimuli/10F_HA_O.BMP,stimuli/10F_HA_O.BMP,stimuli/06F_HA_O.bmp,stimuli/EmptyFrame.bmp,stimuli/RedFrame.bmp,1,Happy,Female,3,1,1.0,364.4438171386719,364.4438171386719,0.0,368.4291076660156,368.4291076660156,0.0,367.4356994628906,367.4356994628906,0.0,0.0,0.0,0.0,,,,,87.0
MatchFaces,stimuli/MatchFaces.bmp,stimuli/EmptyFace.bmp,stimuli/EmptyFace.bmp,stimuli/EmptyFrame.bmp,stimuli/EmptyFrame.bmp,Null,None,None,3,1,1.0,368.6370849609375,368.6370849609375,0.0,372.435302734375,372.435302734375,0.0,371.4461975097656,371.4461975097656,0.0,0.0,0.0,0.0,,,,,88.0
Neutral,stimuli/07F_NE_C.BMP,stimuli/07F_NE_C.BMP,stimuli/14F_NE_C.BMP,stimuli/EmptyFrame.bmp,stimuli/RedFrame.bmp,1,Neutral,Female,3,1,1.0,372.5292053222656,372.5292053222656,0.0,376.4562072753906,376.4562072753906,0.0,375.4576416015625,375.4576416015625,0.0,1.0,1.0,0.0,'1',1.9614741802215576,1.9614741802215576,0.0,89.0
Neutral,stimuli/25M_NE_C.BMP,stimuli/29M_NE_C.BMP,stimuli/25M_NE_C.BMP,stimuli/EmptyFrame.bmp,stimuli/RedFrame.bmp,2,Neutral,Male,3,1,1.0,376.4761657714844,376.4761657714844,0.0,380.4671630859375,380.4671630859375,0.0,379.47979736328125,379.47979736328125,0.0,1.0,1.0,0.0,'2',1.3525917530059814,1.3525917530059814,0.0,90.0
Neutral,stimuli/26M_NE_C.BMP,stimuli/26M_NE_C.BMP,stimuli/28M_NE_C.BMP,stimuli/EmptyFrame.bmp,stimuli/RedFrame.bmp,1,Neutral,Male,3,1,1.0,380.489990234375,380.489990234375,0.0,384.4810791015625,384.4810791015625,0.0,383.4984436035156,383.4984436035156,0.0,1.0,1.0,0.0,'1',1.6050148010253906,1.6050148010253906,0.0,91.0
Neutral,stimuli/08F_NE_C.BMP,stimuli/13F_NE_C.BMP,stimuli/08F_NE_C.BMP,stimuli/EmptyFrame.bmp,stimuli/RedFrame.bmp,2,Neutral,Female,3,1,1.0,384.5043029785156,384.5043029785156,0.0,388.4989929199219,388.4989929199219,0.0,387.5033874511719,387.5033874511719,0.0,1.0,1.0,0.0,'2',1.2527207136154175,1.2527207136154175,0.0,92.0
Neutral,stimuli/09F_NE_C.BMP,stimuli/09F_NE_C.BMP,stimuli/12F_NE_C.BMP,stimuli/EmptyFrame.bmp,stimuli/RedFrame.bmp,1,Neutral,Female,3,1,1.0,388.5240173339844,388.5240173339844,0.0,392.51123046875,392.51123046875,0.0,391.5261535644531,391.5261535644531,0.0,1.0,1.0,0.0,'1',2.684901475906372,2.684901475906372,0.0,93.0
Neutral,stimuli/27M_NE_C.BMP,stimuli/26M_NE_C.BMP,stimuli/27M_NE_C.BMP,stimuli/EmptyFrame.bmp,stimuli/RedFrame.bmp,2,Neutral,Male,3,1,1.0,392.5352783203125,392.5352783203125,0.0,396.5230407714844,396.5230407714844,0.0,395.54150390625,395.54150390625,0.0,1.0,1.0,0.0,'2',1.5353665351867676,1.5353665351867676,0.0,94.0
Neutral,stimuli/28M_NE_C.BMP,stimuli/28M_NE_C.BMP,stimuli/25M_NE_C.BMP,stimuli/EmptyFrame.bmp,stimuli/RedFrame.bmp,1,Neutral,Male,3,1,1.0,396.5428161621094,396.5428161621094,0.0,400.53662109375,400.53662109375,0.0,399.5528564453125,399.5528564453125,0.0,1.0,1.0,0.0,'1',2.53305721282959,2.53305721282959,0.0,95.0
Neutral,stimuli/10F_NE_C.BMP,stimuli/11F_NE_C.BMP,stimuli/10F_NE_C.BMP,stimuli/EmptyFrame.bmp,stimuli/RedFrame.bmp,2,Neutral,Female,3,1,1.0,400.5607604980469,400.5607604980469,0.0,404.5485534667969,404.5485534667969,0.0,403.5707092285156,403.5707092285156,0.0,1.0,1.0,0.0,'2',1.9921314716339111,1.9921314716339111,0.0,96.0
Neutral,stimuli/29M_NE_C.BMP,stimuli/29M_NE_C.BMP,stimuli/24M_NE_C.BMP,stimuli/EmptyFrame.bmp,stimuli/RedFrame.bmp,1,Neutral,Male,3,1,1.0,404.5733337402344,404.5733337402344,0.0,408.58453369140625,408.58453369140625,0.0,407.5747375488281,407.5747375488281,0.0,1.0,1.0,0.0,'1',2.035763740539551,2.035763740539551,0.0,97.0
Neutral,stimuli/11F_NE_C.BMP,stimuli/10F_NE_C.BMP,stimuli/11F_NE_C.BMP,stimuli/EmptyFrame.bmp,stimuli/RedFrame.bmp,2,Neutral,Female,3,1,1.0,408.61553955078125,408.61553955078125,0.0,412.61553955078125,412.61553955078125,0.0,411.6195373535156,411.6195373535156,0.0,1.0,1.0,0.0,'2',1.9788131713867188,1.9788131713867188,0.0,98.0
MatchFaces,stimuli/MatchFaces.bmp,stimuli/EmptyFace.bmp,stimuli/EmptyFace.bmp,stimuli/EmptyFrame.bmp,stimuli/EmptyFrame.bmp,Null,None,None,3,1,1.0,412.8151550292969,412.8151550292969,0.0,416.6194152832031,416.6194152832031,0.0,415.6297302246094,415.6297302246094,0.0,0.0,0.0,0.0,,,,,99.0
Fear,stimuli/23M_FE_O.BMP,stimuli/23M_FE_O.BMP,stimuli/24M_FE_O.BMP,stimuli/EmptyFrame.bmp,stimuli/RedFrame.bmp,1,Fear,Male,3,1,1.0,416.7238464355469,416.7238464355469,0.0,420.6415710449219,420.6415710449219,0.0,419.6476135253906,419.6476135253906,0.0,1.0,1.0,0.0,'1',2.2215123176574707,2.2215123176574707,0.0,100.0
Fear,stimuli/19F_FE_O.BMP,stimuli/18F_FE_O.BMP,stimuli/19F_FE_O.BMP,stimuli/EmptyFrame.bmp,stimuli/RedFrame.bmp,2,Fear,Female,3,1,1.0,420.6661682128906,420.6661682128906,0.0,424.66070556640625,424.66070556640625,0.0,423.6756896972656,423.6756896972656,0.0,1.0,1.0,0.0,'2',1.6977686882019043,1.6977686882019043,0.0,101.0
Fear,stimuli/17F_FE_O.BMP,stimuli/17F_FE_O.BMP,stimuli/16F_FE_O.BMP,stimuli/EmptyFrame.bmp,stimuli/RedFrame.bmp,1,Fear,Female,3,1,1.0,424.6849060058594,424.6849060058594,0.0,428.677978515625,428.677978515625,0.0,427.6894836425781,427.6894836425781,0.0,1.0,1.0,0.0,'1',2.3085923194885254,2.3085923194885254,0.0,102.0
Fear,stimuli/15F_FE_O.BMP,stimuli/18F_FE_O.BMP,stimuli/15F_FE_O.BMP,stimuli/EmptyFrame.bmp,stimuli/RedFrame.bmp,2,Fear,Female,3,1,1.0,428.6978759765625,428.6978759765625,0.0,432.6903381347656,432.6903381347656,0.0,431.70880126953125,431.70880126953125,0.0,1.0,1.0,0.0,'2',2.1281280517578125,2.1281280517578125,0.0,103.0
Fear,stimuli/21M_FE_O.BMP,stimuli/21M_FE_O.BMP,stimuli/22M_FE_O.BMP,stimuli/EmptyFrame.bmp,stimuli/RedFrame.bmp,1,Fear,Male,3,1,1.0,432.714111328125,432.714111328125,0.0,436.7071838378906,436.7071838378906,0.0,435.7142333984375,435.7142333984375,0.0,1.0,1.0,0.0,'1',2.4068045616149902,2.4068045616149902,0.0,104.0
Fear,stimuli/29M_FE_O.BMP,stimuli/30M_FE_O.BMP,stimuli/29M_FE_O.BMP,stimuli/EmptyFrame.bmp,stimuli/RedFrame.bmp,2,Fear,Male,3,1,1.0,436.7319030761719,436.7319030761719,0.0,440.7306823730469,440.7306823730469,0.0,439.75067138671875,439.75067138671875,0.0,1.0,1.0,0.0,'2',2.8858516216278076,2.8858516216278076,0.0,105.0
Fear,stimuli/31M_FE_O.BMP,stimuli/31M_FE_O.BMP,stimuli/38M_FE_O.BMP,stimuli/EmptyFrame.bmp,stimuli/RedFrame.bmp,1,Fear,Male,3,1,1.0,440.75238037109375,440.75238037109375,0.0,444.75091552734375,444.75091552734375,0.0,443.7645263671875,443.7645263671875,0.0,1.0,1.0,0.0,'1',2.36210560798645,2.36210560798645,0.0,106.0
Fear,stimuli/09F_FE_O.BMP,stimuli/07F_FE_O.BMP,stimuli/09F_FE_O.BMP,stimuli/EmptyFrame.bmp,stimuli/RedFrame.bmp,2,Fear,Female,3,1,1.0,444.77398681640625,444.77398681640625,0.0,448.76800537109375,448.76800537109375,0.0,447.7777404785156,447.7777404785156,0.0,1.0,1.0,0.0,'2',2.2300190925598145,2.2300190925598145,0.0,107.0
Fear,stimuli/11F_FE_O.BMP,stimuli/12F_FE_O.BMP,stimuli/11F_FE_O.BMP,stimuli/EmptyFrame.bmp,stimuli/RedFrame.bmp,2,Fear,Female,3,1,1.0,448.791015625,448.791015625,0.0,452.77410888671875,452.77410888671875,0.0,451.7790832519531,451.7790832519531,0.0,0.0,0.0,0.0,,,,,108.0
Fear,stimuli/34M_FE_O.BMP,stimuli/34M_FE_O.BMP,stimuli/33M_FE_O.BMP,stimuli/EmptyFrame.bmp,stimuli/RedFrame.bmp,1,Fear,Male,3,1,1.0,452.8036804199219,452.8036804199219,0.0,456.7845458984375,456.7845458984375,0.0,455.79986572265625,455.79986572265625,0.0,1.0,1.0,0.0,'1',1.7524069547653198,1.7524069547653198,0.0,109.0

extraInfo
participant,sub008
session,002
date,2025_May_30_0858
expName,HaririTask_Ver1
psychopyVersion,3.0.1
frameRate,None
