TrialType,Top,Left,Right,EmptyFrame,SelectedFrame,Correct,Emotion,Gender,TrialLength,FixationLength,n,GCFaceStartTime_mean,GCFaceStartTime_raw,GCFaceStartTime_std,GCPostFaceFixationEndTime_mean,GCPostFaceFixationEndTime_raw,GCPostFaceFixationEndTime_std,GCPostFaceFixationStartTime_mean,GCPostFaceFixationStartTime_raw,GCPostFaceFixationStartTime_std,key_resp_trial.corr_mean,key_resp_trial.corr_raw,key_resp_trial.corr_std,key_resp_trial.keys_raw,key_resp_trial.rt_mean,key_resp_trial.rt_raw,key_resp_trial.rt_std,order
MatchFaces,stimuli/MatchFaces.bmp,stimuli/EmptyFace.bmp,stimuli/EmptyFace.bmp,stimuli/EmptyFrame.bmp,stimuli/EmptyFrame.bmp,Null,None,None,3,1,1.0,15.177560806274414,15.177560806274414,0.0,19.04146957397461,19.04146957397461,0.0,18.06112289428711,18.06112289428711,0.0,0.0,0.0,0.0,,,,,0.0
Fear,stimuli/23M_FE_O.BMP,stimuli/23M_FE_O.BMP,stimuli/24M_FE_O.BMP,stimuli/EmptyFrame.bmp,stimuli/RedFrame.bmp,1,Fear,Male,3,1,1.0,19.172420501708984,19.172420501708984,0.0,23.059146881103516,23.059146881103516,0.0,22.08357810974121,22.08357810974121,0.0,1.0,1.0,0.0,'1',1.0976508855819702,1.0976508855819702,0.0,1.0
Fear,stimuli/19F_FE_O.BMP,stimuli/18F_FE_O.BMP,stimuli/19F_FE_O.BMP,stimuli/EmptyFrame.bmp,stimuli/RedFrame.bmp,2,Fear,Female,3,1,1.0,23.08807945251465,23.08807945251465,0.0,27.078243255615234,27.078243255615234,0.0,26.093055725097656,26.093055725097656,0.0,1.0,1.0,0.0,'2',0.8976209759712219,0.8976209759712219,0.0,2.0
Fear,stimuli/17F_FE_O.BMP,stimuli/17F_FE_O.BMP,stimuli/16F_FE_O.BMP,stimuli/EmptyFrame.bmp,stimuli/RedFrame.bmp,1,Fear,Female,3,1,1.0,27.10753059387207,27.10753059387207,0.0,31.093212127685547,31.093212127685547,0.0,30.112184524536133,30.112184524536133,0.0,1.0,1.0,0.0,'1',0.879909873008728,0.879909873008728,0.0,3.0
Fear,stimuli/21M_FE_O.BMP,stimuli/21M_FE_O.BMP,stimuli/22M_FE_O.BMP,stimuli/EmptyFrame.bmp,stimuli/RedFrame.bmp,1,Fear,Male,3,1,1.0,31.121267318725586,31.121267318725586,0.0,35.121421813964844,35.121421813964844,0.0,34.14324188232422,34.14324188232422,0.0,1.0,1.0,0.0,'1',0.8464561700820923,0.8464561700820923,0.0,4.0
Fear,stimuli/09F_FE_O.BMP,stimuli/07F_FE_O.BMP,stimuli/09F_FE_O.BMP,stimuli/EmptyFrame.bmp,stimuli/RedFrame.bmp,2,Fear,Female,3,1,1.0,35.14752960205078,35.14752960205078,0.0,39.143741607666016,39.143741607666016,0.0,38.161624908447266,38.161624908447266,0.0,1.0,1.0,0.0,'2',0.7240946292877197,0.7240946292877197,0.0,5.0
Fear,stimuli/08F_FE_O.BMP,stimuli/13F_FE_O.BMP,stimuli/08F_FE_O.BMP,stimuli/EmptyFrame.bmp,stimuli/RedFrame.bmp,2,Fear,Female,3,1,1.0,39.174251556396484,39.174251556396484,0.0,43.15644073486328,43.15644073486328,0.0,42.180259704589844,42.180259704589844,0.0,1.0,1.0,0.0,'2',0.8400667905807495,0.8400667905807495,0.0,6.0
Fear,stimuli/07F_FE_O.BMP,stimuli/07F_FE_O.BMP,stimuli/14F_FE_O.BMP,stimuli/EmptyFrame.bmp,stimuli/RedFrame.bmp,1,Fear,Female,3,1,1.0,43.18406677246094,43.18406677246094,0.0,47.17719650268555,47.17719650268555,0.0,46.18303298950195,46.18303298950195,0.0,1.0,1.0,0.0,'1',0.8010597229003906,0.8010597229003906,0.0,7.0
Fear,stimuli/26M_FE_O.BMP,stimuli/26M_FE_O.BMP,stimuli/28M_FE_O.BMP,stimuli/EmptyFrame.bmp,stimuli/RedFrame.bmp,1,Fear,Male,3,1,1.0,47.205623626708984,47.205623626708984,0.0,51.20359420776367,51.20359420776367,0.0,50.212066650390625,50.212066650390625,0.0,1.0,1.0,0.0,'1',0.6485310196876526,0.6485310196876526,0.0,8.0
Fear,stimuli/10F_FE_O.BMP,stimuli/11F_FE_O.BMP,stimuli/10F_FE_O.BMP,stimuli/EmptyFrame.bmp,stimuli/RedFrame.bmp,2,Fear,Female,3,1,1.0,51.23124313354492,51.23124313354492,0.0,55.23161697387695,55.23161697387695,0.0,54.24260330200195,54.24260330200195,0.0,1.0,1.0,0.0,'2',0.6515504717826843,0.6515504717826843,0.0,9.0
Fear,stimuli/29M_FE_O.BMP,stimuli/30M_FE_O.BMP,stimuli/29M_FE_O.BMP,stimuli/EmptyFrame.bmp,stimuli/RedFrame.bmp,2,Fear,Male,3,1,1.0,55.26675033569336,55.26675033569336,0.0,59.2552375793457,59.2552375793457,0.0,58.28538131713867,58.28538131713867,0.0,1.0,1.0,0.0,'2',0.9653608798980713,0.9653608798980713,0.0,10.0
MatchFaces,stimuli/MatchFaces.bmp,stimuli/EmptyFace.bmp,stimuli/EmptyFace.bmp,stimuli/EmptyFrame.bmp,stimuli/EmptyFrame.bmp,Null,None,None,3,1,1.0,59.39223098754883,59.39223098754883,0.0,63.26715850830078,63.26715850830078,0.0,62.2635612487793,62.2635612487793,0.0,0.0,0.0,0.0,,,,,11.0
Neutral,stimuli/07F_NE_C.BMP,stimuli/07F_NE_C.BMP,stimuli/14F_NE_C.BMP,stimuli/EmptyFrame.bmp,stimuli/RedFrame.bmp,1,Neutral,Female,3,1,1.0,63.322113037109375,63.322113037109375,0.0,67.28685760498047,67.28685760498047,0.0,66.30350494384766,66.30350494384766,0.0,1.0,1.0,0.0,'1',0.7167224287986755,0.7167224287986755,0.0,12.0
Neutral,stimuli/25M_NE_C.BMP,stimuli/29M_NE_C.BMP,stimuli/25M_NE_C.BMP,stimuli/EmptyFrame.bmp,stimuli/RedFrame.bmp,2,Neutral,Male,3,1,1.0,67.31875610351562,67.31875610351562,0.0,71.30824279785156,71.30824279785156,0.0,70.32605743408203,70.32605743408203,0.0,1.0,1.0,0.0,'2',0.6731697916984558,0.6731697916984558,0.0,13.0
Neutral,stimuli/26M_NE_C.BMP,stimuli/26M_NE_C.BMP,stimuli/28M_NE_C.BMP,stimuli/EmptyFrame.bmp,stimuli/RedFrame.bmp,1,Neutral,Male,3,1,1.0,71.33905029296875,71.33905029296875,0.0,75.33270263671875,75.33270263671875,0.0,74.33644104003906,74.33644104003906,0.0,1.0,1.0,0.0,'1',1.2233103513717651,1.2233103513717651,0.0,14.0
Neutral,stimuli/08F_NE_C.BMP,stimuli/13F_NE_C.BMP,stimuli/08F_NE_C.BMP,stimuli/EmptyFrame.bmp,stimuli/RedFrame.bmp,2,Neutral,Female,3,1,1.0,75.36764526367188,75.36764526367188,0.0,79.34703063964844,79.34703063964844,0.0,78.36425018310547,78.36425018310547,0.0,1.0,1.0,0.0,'2',0.8751518726348877,0.8751518726348877,0.0,15.0
Neutral,stimuli/09F_NE_C.BMP,stimuli/09F_NE_C.BMP,stimuli/12F_NE_C.BMP,stimuli/EmptyFrame.bmp,stimuli/RedFrame.bmp,1,Neutral,Female,3,1,1.0,79.377197265625,79.377197265625,0.0,83.3617172241211,83.3617172241211,0.0,82.3929214477539,82.3929214477539,0.0,1.0,1.0,0.0,'1',0.6525713801383972,0.6525713801383972,0.0,16.0
Neutral,stimuli/27M_NE_C.BMP,stimuli/26M_NE_C.BMP,stimuli/27M_NE_C.BMP,stimuli/EmptyFrame.bmp,stimuli/RedFrame.bmp,2,Neutral,Male,3,1,1.0,83.3961410522461,83.3961410522461,0.0,87.37590789794922,87.37590789794922,0.0,86.40480041503906,86.40480041503906,0.0,1.0,1.0,0.0,'2',0.8739100098609924,0.8739100098609924,0.0,17.0
Neutral,stimuli/28M_NE_C.BMP,stimuli/28M_NE_C.BMP,stimuli/25M_NE_C.BMP,stimuli/EmptyFrame.bmp,stimuli/RedFrame.bmp,1,Neutral,Male,3,1,1.0,87.39749145507812,87.39749145507812,0.0,91.38775634765625,91.38775634765625,0.0,90.41426086425781,90.41426086425781,0.0,1.0,1.0,0.0,'1',0.7706736922264099,0.7706736922264099,0.0,18.0
Neutral,stimuli/10F_NE_C.BMP,stimuli/11F_NE_C.BMP,stimuli/10F_NE_C.BMP,stimuli/EmptyFrame.bmp,stimuli/RedFrame.bmp,2,Neutral,Female,3,1,1.0,91.4172134399414,91.4172134399414,0.0,95.41292572021484,95.41292572021484,0.0,94.43850708007812,94.43850708007812,0.0,1.0,1.0,0.0,'2',0.6506227850914001,0.6506227850914001,0.0,19.0
Neutral,stimuli/29M_NE_C.BMP,stimuli/29M_NE_C.BMP,stimuli/24M_NE_C.BMP,stimuli/EmptyFrame.bmp,stimuli/RedFrame.bmp,1,Neutral,Male,3,1,1.0,95.44912719726562,95.44912719726562,0.0,99.42980194091797,99.42980194091797,0.0,98.4548110961914,98.4548110961914,0.0,1.0,1.0,0.0,'1',0.7677037119865417,0.7677037119865417,0.0,20.0
Neutral,stimuli/11F_NE_C.BMP,stimuli/10F_NE_C.BMP,stimuli/11F_NE_C.BMP,stimuli/EmptyFrame.bmp,stimuli/RedFrame.bmp,2,Neutral,Female,3,1,1.0,99.45985412597656,99.45985412597656,0.0,103.4569320678711,103.4569320678711,0.0,102.46248626708984,102.46248626708984,0.0,1.0,1.0,0.0,'2',0.5921596884727478,0.5921596884727478,0.0,21.0
MatchShape,stimuli/MatchShapes.bmp,stimuli/EmptyFace.bmp,stimuli/EmptyFace.bmp,stimuli/EmptyFrame.bmp,stimuli/EmptyFrame.bmp,Null,None,None,3,1,1.0,103.48938751220703,103.48938751220703,0.0,107.46711730957031,107.46711730957031,0.0,106.47502136230469,106.47502136230469,0.0,0.0,0.0,0.0,,,,,22.0
Shape,stimuli/circle.bmp,stimuli/vertical.bmp,stimuli/circle.bmp,stimuli/EmptyFrame.bmp,stimuli/RedFrame.bmp,2,Shape,None,3,1,1.0,107.50738525390625,107.50738525390625,0.0,111.49205780029297,111.49205780029297,0.0,110.50577545166016,110.50577545166016,0.0,1.0,1.0,0.0,'2',0.6937733292579651,0.6937733292579651,0.0,23.0
Shape,stimuli/horizontal.bmp,stimuli/circle.bmp,stimuli/horizontal.bmp,stimuli/EmptyFrame.bmp,stimuli/RedFrame.bmp,2,Shape,None,3,1,1.0,111.5220718383789,111.5220718383789,0.0,115.50739288330078,115.50739288330078,0.0,114.5246353149414,114.5246353149414,0.0,1.0,1.0,0.0,'2',0.8075218796730042,0.8075218796730042,0.0,24.0
Shape,stimuli/circle.bmp,stimuli/vertical.bmp,stimuli/circle.bmp,stimuli/EmptyFrame.bmp,stimuli/RedFrame.bmp,2,Shape,None,3,1,1.0,115.53475952148438,115.53475952148438,0.0,119.53038787841797,119.53038787841797,0.0,118.54203033447266,118.54203033447266,0.0,1.0,1.0,0.0,'2',0.7707740068435669,0.7707740068435669,0.0,25.0
Shape,stimuli/vertical.bmp,stimuli/circle.bmp,stimuli/vertical.bmp,stimuli/EmptyFrame.bmp,stimuli/RedFrame.bmp,2,Shape,None,3,1,1.0,119.55548858642578,119.55548858642578,0.0,123.54656219482422,123.54656219482422,0.0,122.57108306884766,122.57108306884766,0.0,1.0,1.0,0.0,'2',0.5687419176101685,0.5687419176101685,0.0,26.0
Shape,stimuli/vertical.bmp,stimuli/horizontal.bmp,stimuli/vertical.bmp,stimuli/EmptyFrame.bmp,stimuli/RedFrame.bmp,2,Shape,None,3,1,1.0,123.57515716552734,123.57515716552734,0.0,127.56746673583984,127.56746673583984,0.0,126.578125,126.578125,0.0,1.0,1.0,0.0,'2',0.8508446216583252,0.8508446216583252,0.0,27.0
Shape,stimuli/horizontal.bmp,stimuli/horizontal.bmp,stimuli/vertical.bmp,stimuli/EmptyFrame.bmp,stimuli/RedFrame.bmp,1,Shape,None,3,1,1.0,127.5988540649414,127.5988540649414,0.0,131.59161376953125,131.59161376953125,0.0,130.6144561767578,130.6144561767578,0.0,1.0,1.0,0.0,'1',0.7783898711204529,0.7783898711204529,0.0,28.0
Shape,stimuli/horizontal.bmp,stimuli/circle.bmp,stimuli/horizontal.bmp,stimuli/EmptyFrame.bmp,stimuli/RedFrame.bmp,2,Shape,None,3,1,1.0,131.6184844970703,131.6184844970703,0.0,135.6121826171875,135.6121826171875,0.0,134.631103515625,134.631103515625,0.0,1.0,1.0,0.0,'2',0.6005023717880249,0.6005023717880249,0.0,29.0
Shape,stimuli/circle.bmp,stimuli/circle.bmp,stimuli/vertical.bmp,stimuli/EmptyFrame.bmp,stimuli/RedFrame.bmp,1,Shape,None,3,1,1.0,135.6405487060547,135.6405487060547,0.0,139.6283416748047,139.6283416748047,0.0,138.64202880859375,138.64202880859375,0.0,1.0,1.0,0.0,'1',0.6246309280395508,0.6246309280395508,0.0,30.0
Shape,stimuli/vertical.bmp,stimuli/horizontal.bmp,stimuli/vertical.bmp,stimuli/EmptyFrame.bmp,stimuli/RedFrame.bmp,2,Shape,None,3,1,1.0,139.6546630859375,139.6546630859375,0.0,143.64976501464844,143.64976501464844,0.0,142.6573028564453,142.6573028564453,0.0,1.0,1.0,0.0,'2',0.6826670169830322,0.6826670169830322,0.0,31.0
Shape,stimuli/vertical.bmp,stimuli/vertical.bmp,stimuli/horizontal.bmp,stimuli/EmptyFrame.bmp,stimuli/RedFrame.bmp,1,Shape,None,3,1,1.0,143.6781005859375,143.6781005859375,0.0,147.67539978027344,147.67539978027344,0.0,146.68560791015625,146.68560791015625,0.0,1.0,1.0,0.0,'1',0.5896142721176147,0.5896142721176147,0.0,32.0
MatchFaces,stimuli/MatchFaces.bmp,stimuli/EmptyFace.bmp,stimuli/EmptyFace.bmp,stimuli/EmptyFrame.bmp,stimuli/EmptyFrame.bmp,Null,None,None,3,1,1.0,147.81581115722656,147.81581115722656,0.0,151.6829071044922,151.6829071044922,0.0,150.68243408203125,150.68243408203125,0.0,0.0,0.0,0.0,,,,,33.0
Anger,stimuli/20M_AN_O.BMP,stimuli/34M_AN_O.BMP,stimuli/20M_AN_O.BMP,stimuli/EmptyFrame.bmp,stimuli/RedFrame.bmp,2,Anger,Male,3,1,1.0,151.74258422851562,151.74258422851562,0.0,155.70260620117188,155.70260620117188,0.0,154.72088623046875,154.72088623046875,0.0,1.0,1.0,0.0,'2',0.7219526767730713,0.7219526767730713,0.0,34.0
Anger,stimuli/01F_AN_O.bmp,stimuli/19F_AN_O.BMP,stimuli/01F_AN_O.bmp,stimuli/EmptyFrame.bmp,stimuli/RedFrame.bmp,2,Anger,Female,3,1,1.0,155.73785400390625,155.73785400390625,0.0,159.72457885742188,159.72457885742188,0.0,158.73300170898438,158.73300170898438,0.0,1.0,1.0,0.0,'2',0.6164439916610718,0.6164439916610718,0.0,35.0
Anger,stimuli/06F_AN_O.bmp,stimuli/15F_AN_O.BMP,stimuli/06F_AN_O.bmp,stimuli/EmptyFrame.bmp,stimuli/RedFrame.bmp,2,Anger,Female,3,1,1.0,159.75714111328125,159.75714111328125,0.0,163.7423858642578,163.7423858642578,0.0,162.76031494140625,162.76031494140625,0.0,1.0,1.0,0.0,'2',0.7075561285018921,0.7075561285018921,0.0,36.0
Anger,stimuli/42M_AN_O.BMP,stimuli/42M_AN_O.BMP,stimuli/43M_AN_O.BMP,stimuli/EmptyFrame.bmp,stimuli/RedFrame.bmp,1,Anger,Male,3,1,1.0,163.76942443847656,163.76942443847656,0.0,167.76788330078125,167.76788330078125,0.0,166.77561950683594,166.77561950683594,0.0,1.0,1.0,0.0,'1',0.7430263757705688,0.7430263757705688,0.0,37.0
Anger,stimuli/40M_AN_O.BMP,stimuli/41M_AN_O.BMP,stimuli/40M_AN_O.BMP,stimuli/EmptyFrame.bmp,stimuli/RedFrame.bmp,2,Anger,Male,3,1,1.0,167.79685974121094,167.79685974121094,0.0,171.788330078125,171.788330078125,0.0,170.81692504882812,170.81692504882812,0.0,1.0,1.0,0.0,'2',0.6631363034248352,0.6631363034248352,0.0,38.0
Anger,stimuli/08F_AN_O.BMP,stimuli/08F_AN_O.BMP,stimuli/13F_AN_O.BMP,stimuli/EmptyFrame.bmp,stimuli/RedFrame.bmp,1,Anger,Female,3,1,1.0,171.818603515625,171.818603515625,0.0,175.816650390625,175.816650390625,0.0,174.82711791992188,174.82711791992188,0.0,1.0,1.0,0.0,'1',0.7664216756820679,0.7664216756820679,0.0,39.0
Anger,stimuli/09F_AN_O.BMP,stimuli/12F_AN_O.BMP,stimuli/09F_AN_O.BMP,stimuli/EmptyFrame.bmp,stimuli/RedFrame.bmp,2,Anger,Female,3,1,1.0,175.84957885742188,175.84957885742188,0.0,179.84378051757812,179.84378051757812,0.0,178.85340881347656,178.85340881347656,0.0,1.0,1.0,0.0,'2',0.6100335121154785,0.6100335121154785,0.0,40.0
Anger,stimuli/34M_AN_O.BMP,stimuli/35M_AN_O.BMP,stimuli/34M_AN_O.BMP,stimuli/EmptyFrame.bmp,stimuli/RedFrame.bmp,2,Anger,Male,3,1,1.0,179.87600708007812,179.87600708007812,0.0,183.86297607421875,183.86297607421875,0.0,182.86947631835938,182.86947631835938,0.0,1.0,1.0,0.0,'2',0.6973496079444885,0.6973496079444885,0.0,41.0
Anger,stimuli/24M_AN_O.BMP,stimuli/24M_AN_O.BMP,stimuli/30M_AN_O.BMP,stimuli/EmptyFrame.bmp,stimuli/RedFrame.bmp,1,Anger,Male,3,1,1.0,183.8967742919922,183.8967742919922,0.0,187.8765869140625,187.8765869140625,0.0,186.8975830078125,186.8975830078125,0.0,1.0,1.0,0.0,'1',0.664482593536377,0.664482593536377,0.0,42.0
Anger,stimuli/03F_AN_O.bmp,stimuli/03F_AN_O.bmp,stimuli/17F_AN_O.BMP,stimuli/EmptyFrame.bmp,stimuli/RedFrame.bmp,1,Anger,Female,3,1,1.0,187.91522216796875,187.91522216796875,0.0,191.8886260986328,191.8886260986328,0.0,190.91806030273438,190.91806030273438,0.0,1.0,1.0,0.0,'1',1.0835020542144775,1.0835020542144775,0.0,43.0
MatchFaces,stimuli/MatchFaces.bmp,stimuli/EmptyFace.bmp,stimuli/EmptyFace.bmp,stimuli/EmptyFrame.bmp,stimuli/EmptyFrame.bmp,Null,None,None,3,1,1.0,192.0276336669922,192.0276336669922,0.0,195.8979034423828,195.8979034423828,0.0,194.91539001464844,194.91539001464844,0.0,0.0,0.0,0.0,,,,,44.0
Happy,stimuli/06F_HA_O.bmp,stimuli/07F_HA_O.BMP,stimuli/06F_HA_O.bmp,stimuli/EmptyFrame.bmp,stimuli/RedFrame.bmp,2,Happy,Female,3,1,1.0,195.956787109375,195.956787109375,0.0,199.92501831054688,199.92501831054688,0.0,198.92803955078125,198.92803955078125,0.0,1.0,1.0,0.0,'2',0.7411357760429382,0.7411357760429382,0.0,45.0
Happy,stimuli/13F_HA_O.BMP,stimuli/13F_HA_O.BMP,stimuli/12F_HA_O.BMP,stimuli/EmptyFrame.bmp,stimuli/RedFrame.bmp,1,Happy,Female,3,1,1.0,199.9591522216797,199.9591522216797,0.0,203.9473114013672,203.9473114013672,0.0,202.96017456054688,202.96017456054688,0.0,1.0,1.0,0.0,'1',0.721133291721344,0.721133291721344,0.0,46.0
Happy,stimuli/41M_HA_O.BMP,stimuli/41M_HA_O.BMP,stimuli/40M_HA_O.BMP,stimuli/EmptyFrame.bmp,stimuli/RedFrame.bmp,1,Happy,Male,3,1,1.0,203.98020935058594,203.98020935058594,0.0,207.97637939453125,207.97637939453125,0.0,206.9801025390625,206.9801025390625,0.0,1.0,1.0,0.0,'1',0.736379086971283,0.736379086971283,0.0,47.0
Happy,stimuli/03F_HA_O.bmp,stimuli/05F_HA_O.bmp,stimuli/03F_HA_O.bmp,stimuli/EmptyFrame.bmp,stimuli/RedFrame.bmp,2,Happy,Female,3,1,1.0,208.0095977783203,208.0095977783203,0.0,211.98974609375,211.98974609375,0.0,211.01123046875,211.01123046875,0.0,1.0,1.0,0.0,'2',0.6577637791633606,0.6577637791633606,0.0,48.0
Happy,stimuli/24M_HA_O.BMP,stimuli/24M_HA_O.BMP,stimuli/25M_HA_O.BMP,stimuli/EmptyFrame.bmp,stimuli/RedFrame.bmp,1,Happy,Male,3,1,1.0,212.02450561523438,212.02450561523438,0.0,216.0186004638672,216.0186004638672,0.0,215.0235595703125,215.0235595703125,0.0,1.0,1.0,0.0,'1',1.1373701095581055,1.1373701095581055,0.0,49.0
Happy,stimuli/19F_HA_O.BMP,stimuli/19F_HA_O.BMP,stimuli/18F_HA_O.BMP,stimuli/EmptyFrame.bmp,stimuli/RedFrame.bmp,1,Happy,Female,3,1,1.0,216.0508575439453,216.0508575439453,0.0,220.03477478027344,220.03477478027344,0.0,219.07037353515625,219.07037353515625,0.0,1.0,1.0,0.0,'1',0.8178694844245911,0.8178694844245911,0.0,50.0
Happy,stimuli/01F_HA_O.bmp,stimuli/01F_HA_O.bmp,stimuli/02F_HA_O.bmp,stimuli/EmptyFrame.bmp,stimuli/RedFrame.bmp,1,Happy,Female,3,1,1.0,220.06964111328125,220.06964111328125,0.0,224.05982971191406,224.05982971191406,0.0,223.07374572753906,223.07374572753906,0.0,1.0,1.0,0.0,'1',0.5426262021064758,0.5426262021064758,0.0,51.0
Happy,stimuli/22M_HA_O.BMP,stimuli/23M_HA_O.BMP,stimuli/22M_HA_O.BMP,stimuli/EmptyFrame.bmp,stimuli/RedFrame.bmp,2,Happy,Male,3,1,1.0,224.09722900390625,224.09722900390625,0.0,228.0888214111328,228.0888214111328,0.0,227.10287475585938,227.10287475585938,0.0,1.0,1.0,0.0,'2',0.857672929763794,0.857672929763794,0.0,52.0
Happy,stimuli/35M_HA_O.BMP,stimuli/34M_HA_O.BMP,stimuli/35M_HA_O.BMP,stimuli/EmptyFrame.bmp,stimuli/RedFrame.bmp,2,Happy,Male,3,1,1.0,228.12100219726562,228.12100219726562,0.0,232.1074981689453,232.1074981689453,0.0,231.1233673095703,231.1233673095703,0.0,1.0,1.0,0.0,'2',0.6594346165657043,0.6594346165657043,0.0,53.0
Happy,stimuli/39M_HA_O.BMP,stimuli/38M_HA_O.BMP,stimuli/39M_HA_O.BMP,stimuli/EmptyFrame.bmp,stimuli/RedFrame.bmp,2,Happy,Male,3,1,1.0,232.13931274414062,232.13931274414062,0.0,236.12608337402344,236.12608337402344,0.0,235.1453094482422,235.1453094482422,0.0,1.0,1.0,0.0,'2',0.5596510171890259,0.5596510171890259,0.0,54.0
Match Shape,stimuli/MatchShapes.bmp,stimuli/EmptyFace.bmp,stimuli/EmptyFace.bmp,stimuli/EmptyFrame.bmp,stimuli/EmptyFrame.bmp,Null,None,None,3,1,1.0,236.1578369140625,236.1578369140625,0.0,240.1317901611328,240.1317901611328,0.0,239.14840698242188,239.14840698242188,0.0,0.0,0.0,0.0,,,,,55.0
Shape,stimuli/horizontal.bmp,stimuli/horizontal.bmp,stimuli/vertical.bmp,stimuli/EmptyFrame.bmp,stimuli/RedFrame.bmp,1,Shape,None,3,1,1.0,240.1676483154297,240.1676483154297,0.0,244.14874267578125,244.14874267578125,0.0,243.16700744628906,243.16700744628906,0.0,1.0,1.0,0.0,'1',0.6921023726463318,0.6921023726463318,0.0,56.0
Shape,stimuli/horizontal.bmp,stimuli/horizontal.bmp,stimuli/circle.bmp,stimuli/EmptyFrame.bmp,stimuli/RedFrame.bmp,1,Shape,None,3,1,1.0,244.17678833007812,244.17678833007812,0.0,248.17514038085938,248.17514038085938,0.0,247.1775665283203,247.1775665283203,0.0,1.0,1.0,0.0,'1',0.5277249813079834,0.5277249813079834,0.0,57.0
Shape,stimuli/circle.bmp,stimuli/vertical.bmp,stimuli/circle.bmp,stimuli/EmptyFrame.bmp,stimuli/RedFrame.bmp,2,Shape,None,3,1,1.0,248.1987762451172,248.1987762451172,0.0,252.19735717773438,252.19735717773438,0.0,251.2256317138672,251.2256317138672,0.0,1.0,1.0,0.0,'2',0.7138437032699585,0.7138437032699585,0.0,58.0
Shape,stimuli/vertical.bmp,stimuli/vertical.bmp,stimuli/circle.bmp,stimuli/EmptyFrame.bmp,stimuli/RedFrame.bmp,1,Shape,None,3,1,1.0,252.2268524169922,252.2268524169922,0.0,256.2242126464844,256.2242126464844,0.0,255.2272186279297,255.2272186279297,0.0,1.0,1.0,0.0,'1',0.5397433042526245,0.5397433042526245,0.0,59.0
Shape,stimuli/horizontal.bmp,stimuli/horizontal.bmp,stimuli/circle.bmp,stimuli/EmptyFrame.bmp,stimuli/RedFrame.bmp,1,Shape,None,3,1,1.0,256.2506103515625,256.2506103515625,0.0,260.2528076171875,260.2528076171875,0.0,259.2508850097656,259.2508850097656,0.0,1.0,1.0,0.0,'1',0.6480504274368286,0.6480504274368286,0.0,60.0
Shape,stimuli/vertical.bmp,stimuli/vertical.bmp,stimuli/circle.bmp,stimuli/EmptyFrame.bmp,stimuli/RedFrame.bmp,1,Shape,None,3,1,1.0,260.283447265625,260.283447265625,0.0,264.2693176269531,264.2693176269531,0.0,263.2843933105469,263.2843933105469,0.0,1.0,1.0,0.0,'1',0.5635455250740051,0.5635455250740051,0.0,61.0
Shape,stimuli/horizontal.bmp,stimuli/circle.bmp,stimuli/horizontal.bmp,stimuli/EmptyFrame.bmp,stimuli/RedFrame.bmp,2,Shape,None,3,1,1.0,264.2943115234375,264.2943115234375,0.0,268.2887268066406,268.2887268066406,0.0,267.3070373535156,267.3070373535156,0.0,1.0,1.0,0.0,'2',0.6813569068908691,0.6813569068908691,0.0,62.0
Shape,stimuli/circle.bmp,stimuli/circle.bmp,stimuli/horizontal.bmp,stimuli/EmptyFrame.bmp,stimuli/RedFrame.bmp,1,Shape,None,3,1,1.0,268.3157958984375,268.3157958984375,0.0,272.31072998046875,272.31072998046875,0.0,271.3203125,271.3203125,0.0,1.0,1.0,0.0,'1',0.5825160145759583,0.5825160145759583,0.0,63.0
Shape,stimuli/circle.bmp,stimuli/horizontal.bmp,stimuli/circle.bmp,stimuli/EmptyFrame.bmp,stimuli/RedFrame.bmp,2,Shape,None,3,1,1.0,272.3433837890625,272.3433837890625,0.0,276.3247985839844,276.3247985839844,0.0,275.3431396484375,275.3431396484375,0.0,1.0,1.0,0.0,'2',0.5681871771812439,0.5681871771812439,0.0,64.0
Shape,stimuli/vertical.bmp,stimuli/vertical.bmp,stimuli/horizontal.bmp,stimuli/EmptyFrame.bmp,stimuli/RedFrame.bmp,1,Shape,None,3,1,1.0,276.352294921875,276.352294921875,0.0,280.34564208984375,280.34564208984375,0.0,279.357421875,279.357421875,0.0,1.0,1.0,0.0,'1',0.5512228012084961,0.5512228012084961,0.0,65.0
MatchFaces,stimuli/MatchFaces.bmp,stimuli/EmptyFace.bmp,stimuli/EmptyFace.bmp,stimuli/EmptyFrame.bmp,stimuli/EmptyFrame.bmp,Null,None,None,3,1,1.0,280.4879150390625,280.4879150390625,0.0,284.3497619628906,284.3497619628906,0.0,283.36090087890625,283.36090087890625,0.0,0.0,0.0,0.0,,,,,66.0
Neutral,stimuli/20M_NE_C.BMP,stimuli/21M_NE_C.BMP,stimuli/20M_NE_C.BMP,stimuli/EmptyFrame.bmp,stimuli/RedFrame.bmp,2,Neutral,Male,3,1,1.0,284.39984130859375,284.39984130859375,0.0,288.37371826171875,288.37371826171875,0.0,287.38421630859375,287.38421630859375,0.0,1.0,1.0,0.0,'2',1.187732219696045,1.187732219696045,0.0,67.0
Neutral,stimuli/01F_NE_C.bmp,stimuli/01F_NE_C.bmp,stimuli/02F_NE_C.bmp,stimuli/EmptyFrame.bmp,stimuli/RedFrame.bmp,1,Neutral,Female,3,1,1.0,288.40521240234375,288.40521240234375,0.0,292.4037780761719,292.4037780761719,0.0,291.4112548828125,291.4112548828125,0.0,1.0,1.0,0.0,'1',0.7949392795562744,0.7949392795562744,0.0,68.0
Neutral,stimuli/22M_NE_C.BMP,stimuli/23M_NE_C.BMP,stimuli/22M_NE_C.BMP,stimuli/EmptyFrame.bmp,stimuli/RedFrame.bmp,2,Neutral,Male,3,1,1.0,292.4391174316406,292.4391174316406,0.0,296.4176940917969,296.4176940917969,0.0,295.44415283203125,295.44415283203125,0.0,1.0,1.0,0.0,'2',0.7301294803619385,0.7301294803619385,0.0,69.0
Neutral,stimuli/24M_NE_C.BMP,stimuli/24M_NE_C.BMP,stimuli/25M_NE_C.BMP,stimuli/EmptyFrame.bmp,stimuli/RedFrame.bmp,1,Neutral,Male,3,1,1.0,296.4470520019531,296.4470520019531,0.0,300.4405517578125,300.4405517578125,0.0,299.46710205078125,299.46710205078125,0.0,1.0,1.0,0.0,'1',0.9740549921989441,0.9740549921989441,0.0,70.0
Neutral,stimuli/03F_NE_C.bmp,stimuli/05F_NE_C.bmp,stimuli/03F_NE_C.bmp,stimuli/EmptyFrame.bmp,stimuli/RedFrame.bmp,2,Neutral,Female,3,1,1.0,300.48541259765625,300.48541259765625,0.0,304.4559631347656,304.4559631347656,0.0,303.4984130859375,303.4984130859375,0.0,1.0,1.0,0.0,'2',0.8386272192001343,0.8386272192001343,0.0,71.0
Neutral,stimuli/26M_NE_C.BMP,stimuli/26M_NE_C.BMP,stimuli/27M_NE_C.BMP,stimuli/EmptyFrame.bmp,stimuli/RedFrame.bmp,1,Neutral,Male,3,1,1.0,304.485107421875,304.485107421875,0.0,308.4659423828125,308.4659423828125,0.0,307.4950256347656,307.4950256347656,0.0,1.0,1.0,0.0,'1',0.6985995769500732,0.6985995769500732,0.0,72.0
Neutral,stimuli/06F_NE_C.bmp,stimuli/07F_NE_C.BMP,stimuli/06F_NE_C.bmp,stimuli/EmptyFrame.bmp,stimuli/RedFrame.bmp,2,Neutral,Female,3,1,1.0,308.49896240234375,308.49896240234375,0.0,312.483642578125,312.483642578125,0.0,311.52435302734375,311.52435302734375,0.0,1.0,1.0,0.0,'2',0.520041286945343,0.520041286945343,0.0,73.0
Neutral,stimuli/08F_NE_C.BMP,stimuli/08F_NE_C.BMP,stimuli/09F_NE_C.BMP,stimuli/EmptyFrame.bmp,stimuli/RedFrame.bmp,1,Neutral,Female,3,1,1.0,312.515380859375,312.515380859375,0.0,316.4974670410156,316.4974670410156,0.0,315.51373291015625,315.51373291015625,0.0,1.0,1.0,0.0,'1',0.5680935978889465,0.5680935978889465,0.0,74.0
Neutral,stimuli/28M_NE_C.BMP,stimuli/29M_NE_C.BMP,stimuli/28M_NE_C.BMP,stimuli/EmptyFrame.bmp,stimuli/RedFrame.bmp,2,Neutral,Male,3,1,1.0,316.5275573730469,316.5275573730469,0.0,320.5169677734375,320.5169677734375,0.0,319.5352783203125,319.5352783203125,0.0,1.0,1.0,0.0,'2',0.5707914233207703,0.5707914233207703,0.0,75.0
Neutral,stimuli/10F_NE_C.BMP,stimuli/10F_NE_C.BMP,stimuli/06F_NE_C.bmp,stimuli/EmptyFrame.bmp,stimuli/RedFrame.bmp,1,Neutral,Female,3,1,1.0,320.54913330078125,320.54913330078125,0.0,324.54345703125,324.54345703125,0.0,323.5616455078125,323.5616455078125,0.0,1.0,1.0,0.0,'1',1.08812415599823,1.08812415599823,0.0,76.0
MatchFaces,stimuli/MatchFaces.bmp,stimuli/EmptyFace.bmp,stimuli/EmptyFace.bmp,stimuli/EmptyFrame.bmp,stimuli/EmptyFrame.bmp,Null,None,None,3,1,1.0,324.67926025390625,324.67926025390625,0.0,328.5469665527344,328.5469665527344,0.0,327.5563659667969,327.5563659667969,0.0,0.0,0.0,0.0,,,,,77.0
Happy,stimuli/28M_HA_O.BMP,stimuli/29M_HA_O.BMP,stimuli/28M_HA_O.BMP,stimuli/EmptyFrame.bmp,stimuli/RedFrame.bmp,2,Happy,Male,3,1,1.0,328.6267395019531,328.6267395019531,0.0,332.5595397949219,332.5595397949219,0.0,331.5851135253906,331.5851135253906,0.0,1.0,1.0,0.0,'2',0.8842877149581909,0.8842877149581909,0.0,78.0
Happy,stimuli/10F_HA_O.BMP,stimuli/10F_HA_O.BMP,stimuli/06F_HA_O.bmp,stimuli/EmptyFrame.bmp,stimuli/RedFrame.bmp,1,Happy,Female,3,1,1.0,332.5876770019531,332.5876770019531,0.0,336.5764465332031,336.5764465332031,0.0,335.5937805175781,335.5937805175781,0.0,1.0,1.0,0.0,'1',0.631736695766449,0.631736695766449,0.0,79.0
Happy,stimuli/26M_HA_O.BMP,stimuli/26M_HA_O.BMP,stimuli/27M_HA_O.BMP,stimuli/EmptyFrame.bmp,stimuli/RedFrame.bmp,1,Happy,Male,3,1,1.0,336.61004638671875,336.61004638671875,0.0,340.5995178222656,340.5995178222656,0.0,339.6081848144531,339.6081848144531,0.0,1.0,1.0,0.0,'1',0.9370192885398865,0.9370192885398865,0.0,80.0
Happy,stimuli/20M_HA_O.BMP,stimuli/21M_HA_O.BMP,stimuli/20M_HA_O.BMP,stimuli/EmptyFrame.bmp,stimuli/RedFrame.bmp,2,Happy,Male,3,1,1.0,340.62353515625,340.62353515625,0.0,344.61773681640625,344.61773681640625,0.0,343.62933349609375,343.62933349609375,0.0,1.0,1.0,0.0,'2',0.827754020690918,0.827754020690918,0.0,81.0
Happy,stimuli/37M_HA_O.BMP,stimuli/37M_HA_O.BMP,stimuli/36M_HA_O.BMP,stimuli/EmptyFrame.bmp,stimuli/RedFrame.bmp,1,Happy,Male,3,1,1.0,344.65594482421875,344.65594482421875,0.0,348.6295166015625,348.6295166015625,0.0,347.6557312011719,347.6557312011719,0.0,1.0,1.0,0.0,'1',0.9787833094596863,0.9787833094596863,0.0,82.0
Happy,stimuli/43M_HA_O.BMP,stimuli/42M_HA_O.BMP,stimuli/43M_HA_O.BMP,stimuli/EmptyFrame.bmp,stimuli/RedFrame.bmp,2,Happy,Male,3,1,1.0,348.6611022949219,348.6611022949219,0.0,352.6437683105469,352.6437683105469,0.0,351.6673889160156,351.6673889160156,0.0,1.0,1.0,0.0,'2',0.6722221970558167,0.6722221970558167,0.0,83.0
Happy,stimuli/11F_HA_O.BMP,stimuli/10F_HA_O.BMP,stimuli/11F_HA_O.BMP,stimuli/EmptyFrame.bmp,stimuli/RedFrame.bmp,2,Happy,Female,3,1,1.0,352.67596435546875,352.67596435546875,0.0,356.6590576171875,356.6590576171875,0.0,355.67626953125,355.67626953125,0.0,1.0,1.0,0.0,'2',0.6658278703689575,0.6658278703689575,0.0,84.0
Happy,stimuli/17F_HA_O.BMP,stimuli/16F_HA_O.BMP,stimuli/17F_HA_O.BMP,stimuli/EmptyFrame.bmp,stimuli/RedFrame.bmp,2,Happy,Female,3,1,1.0,356.68994140625,356.68994140625,0.0,360.6780700683594,360.6780700683594,0.0,359.69415283203125,359.69415283203125,0.0,1.0,1.0,0.0,'2',0.8510345220565796,0.8510345220565796,0.0,85.0
Happy,stimuli/15F_HA_O.BMP,stimuli/15F_HA_O.BMP,stimuli/14F_HA_O.BMP,stimuli/EmptyFrame.bmp,stimuli/RedFrame.bmp,1,Happy,Female,3,1,1.0,360.7077941894531,360.7077941894531,0.0,364.7046203613281,364.7046203613281,0.0,363.7106018066406,363.7106018066406,0.0,1.0,1.0,0.0,'1',0.8585487008094788,0.8585487008094788,0.0,86.0
Happy,stimuli/08F_HA_O.BMP,stimuli/08F_HA_O.BMP,stimuli/09F_HA_O.BMP,stimuli/EmptyFrame.bmp,stimuli/RedFrame.bmp,1,Happy,Female,3,1,1.0,364.73712158203125,364.73712158203125,0.0,368.7229309082031,368.7229309082031,0.0,367.73321533203125,367.73321533203125,0.0,1.0,1.0,0.0,'1',0.9480378031730652,0.9480378031730652,0.0,87.0
MatchFaces,stimuli/MatchFaces.bmp,stimuli/EmptyFace.bmp,stimuli/EmptyFace.bmp,stimuli/EmptyFrame.bmp,stimuli/EmptyFrame.bmp,Null,None,None,3,1,1.0,368.85906982421875,368.85906982421875,0.0,372.73004150390625,372.73004150390625,0.0,371.7304382324219,371.7304382324219,0.0,0.0,0.0,0.0,,,,,88.0
Fear,stimuli/34M_FE_O.BMP,stimuli/34M_FE_O.BMP,stimuli/33M_FE_O.BMP,stimuli/EmptyFrame.bmp,stimuli/RedFrame.bmp,1,Fear,Male,3,1,1.0,372.7823791503906,372.7823791503906,0.0,376.7423400878906,376.7423400878906,0.0,375.7621765136719,375.7621765136719,0.0,1.0,1.0,0.0,'1',0.8519613742828369,0.8519613742828369,0.0,89.0
Fear,stimuli/28M_FE_O.BMP,stimuli/28M_FE_O.BMP,stimuli/25M_FE_O.BMP,stimuli/EmptyFrame.bmp,stimuli/RedFrame.bmp,1,Fear,Male,3,1,1.0,376.77227783203125,376.77227783203125,0.0,380.7684326171875,380.7684326171875,0.0,379.7776794433594,379.7776794433594,0.0,1.0,1.0,0.0,'1',0.9047641158103943,0.9047641158103943,0.0,90.0
Fear,stimuli/11F_FE_O.BMP,stimuli/10F_FE_O.BMP,stimuli/11F_FE_O.BMP,stimuli/EmptyFrame.bmp,stimuli/RedFrame.bmp,2,Fear,Female,3,1,1.0,380.7986145019531,380.7986145019531,0.0,384.7834777832031,384.7834777832031,0.0,383.80596923828125,383.80596923828125,0.0,1.0,1.0,0.0,'2',0.5921019911766052,0.5921019911766052,0.0,91.0
Fear,stimuli/27M_FE_O.BMP,stimuli/26M_FE_O.BMP,stimuli/27M_FE_O.BMP,stimuli/EmptyFrame.bmp,stimuli/RedFrame.bmp,2,Fear,Male,3,1,1.0,384.8178405761719,384.8178405761719,0.0,388.80352783203125,388.80352783203125,0.0,387.8133544921875,387.8133544921875,0.0,1.0,1.0,0.0,'2',0.8401136994361877,0.8401136994361877,0.0,92.0
Fear,stimuli/11F_FE_O.BMP,stimuli/12F_FE_O.BMP,stimuli/11F_FE_O.BMP,stimuli/EmptyFrame.bmp,stimuli/RedFrame.bmp,2,Fear,Female,3,1,1.0,388.8393859863281,388.8393859863281,0.0,392.8332214355469,392.8332214355469,0.0,391.8330383300781,391.8330383300781,0.0,1.0,1.0,0.0,'2',0.6946961879730225,0.6946961879730225,0.0,93.0
Fear,stimuli/31M_FE_O.BMP,stimuli/31M_FE_O.BMP,stimuli/38M_FE_O.BMP,stimuli/EmptyFrame.bmp,stimuli/RedFrame.bmp,1,Fear,Male,3,1,1.0,392.86761474609375,392.86761474609375,0.0,396.8569641113281,396.8569641113281,0.0,395.8828125,395.8828125,0.0,1.0,1.0,0.0,'1',0.8806784749031067,0.8806784749031067,0.0,94.0
Fear,stimuli/29M_FE_O.BMP,stimuli/29M_FE_O.BMP,stimuli/24M_FE_O.BMP,stimuli/EmptyFrame.bmp,stimuli/RedFrame.bmp,1,Fear,Male,3,1,1.0,396.8843994140625,396.8843994140625,0.0,400.8912658691406,400.8912658691406,0.0,399.90496826171875,399.90496826171875,0.0,1.0,1.0,0.0,'1',0.7132278084754944,0.7132278084754944,0.0,95.0
Fear,stimuli/25M_FE_O.BMP,stimuli/29M_FE_O.BMP,stimuli/25M_FE_O.BMP,stimuli/EmptyFrame.bmp,stimuli/RedFrame.bmp,2,Fear,Male,3,1,1.0,400.9188537597656,400.9188537597656,0.0,404.92376708984375,404.92376708984375,0.0,403.934326171875,403.934326171875,0.0,1.0,1.0,0.0,'2',0.7447006702423096,0.7447006702423096,0.0,96.0
Fear,stimuli/15F_FE_O.BMP,stimuli/18F_FE_O.BMP,stimuli/15F_FE_O.BMP,stimuli/EmptyFrame.bmp,stimuli/RedFrame.bmp,2,Fear,Female,3,1,1.0,404.9560852050781,404.9560852050781,0.0,408.948974609375,408.948974609375,0.0,407.9676818847656,407.9676818847656,0.0,1.0,1.0,0.0,'2',0.9024189710617065,0.9024189710617065,0.0,97.0
Fear,stimuli/09F_FE_O.BMP,stimuli/09F_FE_O.BMP,stimuli/12F_FE_O.BMP,stimuli/EmptyFrame.bmp,stimuli/RedFrame.bmp,1,Fear,Female,3,1,1.0,408.9781494140625,408.9781494140625,0.0,412.9657897949219,412.9657897949219,0.0,411.99151611328125,411.99151611328125,0.0,1.0,1.0,0.0,'1',0.6793391108512878,0.6793391108512878,0.0,98.0
MatchFaces,stimuli/MatchFaces.bmp,stimuli/EmptyFace.bmp,stimuli/EmptyFace.bmp,stimuli/EmptyFrame.bmp,stimuli/EmptyFrame.bmp,Null,None,None,3,1,1.0,413.11309814453125,413.11309814453125,0.0,416.9691467285156,416.9691467285156,0.0,415.9755554199219,415.9755554199219,0.0,0.0,0.0,0.0,,,,,99.0
Anger,stimuli/23M_AN_O.BMP,stimuli/23M_AN_O.BMP,stimuli/31M_AN_O.BMP,stimuli/EmptyFrame.bmp,stimuli/RedFrame.bmp,1,Anger,Male,3,1,1.0,417.01824951171875,417.01824951171875,0.0,420.9906005859375,420.9906005859375,0.0,420.0063171386719,420.0063171386719,0.0,1.0,1.0,0.0,'1',0.7593291997909546,0.7593291997909546,0.0,100.0
Anger,stimuli/36M_AN_O.BMP,stimuli/37M_AN_O.BMP,stimuli/36M_AN_O.BMP,stimuli/EmptyFrame.bmp,stimuli/RedFrame.bmp,2,Anger,Male,3,1,1.0,421.02264404296875,421.02264404296875,0.0,425.0105285644531,425.0105285644531,0.0,424.04364013671875,424.04364013671875,0.0,1.0,1.0,0.0,'2',0.6440752744674683,0.6440752744674683,0.0,101.0
Anger,stimuli/38M_AN_O.BMP,stimuli/39M_AN_O.BMP,stimuli/38M_AN_O.BMP,stimuli/EmptyFrame.bmp,stimuli/RedFrame.bmp,2,Anger,Male,3,1,1.0,425.04241943359375,425.04241943359375,0.0,429.0417175292969,429.0417175292969,0.0,428.0543518066406,428.0543518066406,0.0,1.0,1.0,0.0,'2',0.7990490794181824,0.7990490794181824,0.0,102.0
Anger,stimuli/02f_an_o.bmp,stimuli/18F_AN_O.BMP,stimuli/02f_an_o.bmp,stimuli/EmptyFrame.bmp,stimuli/RedFrame.bmp,2,Anger,Female,3,1,1.0,429.0762023925781,429.0762023925781,0.0,433.05804443359375,433.05804443359375,0.0,432.07220458984375,432.07220458984375,0.0,1.0,1.0,0.0,'2',0.6264899969100952,0.6264899969100952,0.0,103.0
Anger,stimuli/22M_AN_O.BMP,stimuli/32M_AN_O.BMP,stimuli/22M_AN_O.BMP,stimuli/EmptyFrame.bmp,stimuli/RedFrame.bmp,2,Anger,Male,3,1,1.0,433.09320068359375,433.09320068359375,0.0,437.0782470703125,437.0782470703125,0.0,436.10308837890625,436.10308837890625,0.0,1.0,1.0,0.0,'2',0.695156991481781,0.695156991481781,0.0,104.0
Anger,stimuli/12F_AN_O.BMP,stimuli/12F_AN_O.BMP,stimuli/13F_AN_O.BMP,stimuli/EmptyFrame.bmp,stimuli/RedFrame.bmp,1,Anger,Female,3,1,1.0,437.10809326171875,437.10809326171875,0.0,441.10723876953125,441.10723876953125,0.0,440.1164855957031,440.1164855957031,0.0,1.0,1.0,0.0,'1',0.7263382077217102,0.7263382077217102,0.0,105.0
Anger,stimuli/05F_AN_O.bmp,stimuli/05F_AN_O.bmp,stimuli/16F_AN_O.BMP,stimuli/EmptyFrame.bmp,stimuli/RedFrame.bmp,1,Anger,Female,3,1,1.0,441.1445007324219,441.1445007324219,0.0,445.12835693359375,445.12835693359375,0.0,444.14404296875,444.14404296875,0.0,1.0,1.0,0.0,'1',0.6237220168113708,0.6237220168113708,0.0,106.0
Anger,stimuli/21M_AN_O.BMP,stimuli/21M_AN_O.BMP,stimuli/33M_AN_O.BMP,stimuli/EmptyFrame.bmp,stimuli/RedFrame.bmp,1,Anger,Male,3,1,1.0,445.1651611328125,445.1651611328125,0.0,449.1499938964844,449.1499938964844,0.0,448.1624755859375,448.1624755859375,0.0,1.0,1.0,0.0,'1',0.6694692969322205,0.6694692969322205,0.0,107.0
Anger,stimuli/07F_AN_O.BMP,stimuli/07F_AN_O.BMP,stimuli/14F_AN_O.BMP,stimuli/EmptyFrame.bmp,stimuli/RedFrame.bmp,1,Anger,Female,3,1,1.0,449.1871337890625,449.1871337890625,0.0,453.1724548339844,453.1724548339844,0.0,452.1970520019531,452.1970520019531,0.0,1.0,1.0,0.0,'1',0.7211853265762329,0.7211853265762329,0.0,108.0
Anger,stimuli/10F_AN_O.BMP,stimuli/10F_AN_O.BMP,stimuli/11F_AN_O.BMP,stimuli/EmptyFrame.bmp,stimuli/RedFrame.bmp,1,Anger,Female,3,1,1.0,453.21099853515625,453.21099853515625,0.0,457.19256591796875,457.19256591796875,0.0,456.2226867675781,456.2226867675781,0.0,1.0,1.0,0.0,'1',0.6724131107330322,0.6724131107330322,0.0,109.0

extraInfo
participant,Sub001
session,002
date,2025_May_07_0938
expName,HaririTask_Ver2
psychopyVersion,3.0.1
frameRate,None
