TrialType,Top,Left,Right,EmptyFrame,SelectedFrame,Correct,Emotion,Gender,TrialLength,FixationLength,n,GCFaceStartTime_mean,GCFaceStartTime_raw,GCFaceStartTime_std,GCPostFaceFixationEndTime_mean,GCPostFaceFixationEndTime_raw,GCPostFaceFixationEndTime_std,GCPostFaceFixationStartTime_mean,GCPostFaceFixationStartTime_raw,GCPostFaceFixationStartTime_std,key_resp_trial.corr_mean,key_resp_trial.corr_raw,key_resp_trial.corr_std,key_resp_trial.keys_raw,key_resp_trial.rt_mean,key_resp_trial.rt_raw,key_resp_trial.rt_std,order
MatchFaces,stimuli/MatchFaces.bmp,stimuli/EmptyFace.bmp,stimuli/EmptyFace.bmp,stimuli/EmptyFrame.bmp,stimuli/EmptyFrame.bmp,Null,None,None,3,1,1.0,15.299424171447754,15.299424171447754,0.0,19.046754837036133,19.046754837036133,0.0,18.05251693725586,18.05251693725586,0.0,0.0,0.0,0.0,,,,,0.0
Fear,stimuli/23M_FE_O.BMP,stimuli/23M_FE_O.BMP,stimuli/24M_FE_O.BMP,stimuli/EmptyFrame.bmp,stimuli/RedFrame.bmp,1,Fear,Male,3,1,1.0,19.25994300842285,19.25994300842285,0.0,23.078086853027344,23.078086853027344,0.0,22.078731536865234,22.078731536865234,0.0,1.0,1.0,0.0,'1',2.0476205348968506,2.0476205348968506,0.0,1.0
Fear,stimuli/19F_FE_O.BMP,stimuli/18F_FE_O.BMP,stimuli/19F_FE_O.BMP,stimuli/EmptyFrame.bmp,stimuli/RedFrame.bmp,2,Fear,Female,3,1,1.0,23.121627807617188,23.121627807617188,0.0,27.102231979370117,27.102231979370117,0.0,26.107797622680664,26.107797622680664,0.0,1.0,1.0,0.0,'2',1.366103172302246,1.366103172302246,0.0,2.0
Fear,stimuli/17F_FE_O.BMP,stimuli/17F_FE_O.BMP,stimuli/16F_FE_O.BMP,stimuli/EmptyFrame.bmp,stimuli/RedFrame.bmp,1,Fear,Female,3,1,1.0,27.13643455505371,27.13643455505371,0.0,31.12579345703125,31.12579345703125,0.0,30.136756896972656,30.136756896972656,0.0,1.0,1.0,0.0,'1',2.6405293941497803,2.6405293941497803,0.0,3.0
Fear,stimuli/21M_FE_O.BMP,stimuli/21M_FE_O.BMP,stimuli/22M_FE_O.BMP,stimuli/EmptyFrame.bmp,stimuli/RedFrame.bmp,1,Fear,Male,3,1,1.0,31.157737731933594,31.157737731933594,0.0,35.136199951171875,35.136199951171875,0.0,34.156612396240234,34.156612396240234,0.0,1.0,1.0,0.0,'1',1.2042065858840942,1.2042065858840942,0.0,4.0
Fear,stimuli/09F_FE_O.BMP,stimuli/07F_FE_O.BMP,stimuli/09F_FE_O.BMP,stimuli/EmptyFrame.bmp,stimuli/RedFrame.bmp,2,Fear,Female,3,1,1.0,35.164554595947266,35.164554595947266,0.0,39.1689338684082,39.1689338684082,0.0,38.17161178588867,38.17161178588867,0.0,1.0,1.0,0.0,'2',1.4872208833694458,1.4872208833694458,0.0,5.0
Fear,stimuli/08F_FE_O.BMP,stimuli/13F_FE_O.BMP,stimuli/08F_FE_O.BMP,stimuli/EmptyFrame.bmp,stimuli/RedFrame.bmp,2,Fear,Female,3,1,1.0,39.20174026489258,39.20174026489258,0.0,43.1928596496582,43.1928596496582,0.0,42.20524215698242,42.20524215698242,0.0,0.0,0.0,0.0,'1',1.146859884262085,1.146859884262085,0.0,6.0
Fear,stimuli/07F_FE_O.BMP,stimuli/07F_FE_O.BMP,stimuli/14F_FE_O.BMP,stimuli/EmptyFrame.bmp,stimuli/RedFrame.bmp,1,Fear,Female,3,1,1.0,43.23240661621094,43.23240661621094,0.0,47.2120246887207,47.2120246887207,0.0,46.227535247802734,46.227535247802734,0.0,1.0,1.0,0.0,'1',1.1142618656158447,1.1142618656158447,0.0,7.0
Fear,stimuli/26M_FE_O.BMP,stimuli/26M_FE_O.BMP,stimuli/28M_FE_O.BMP,stimuli/EmptyFrame.bmp,stimuli/RedFrame.bmp,1,Fear,Male,3,1,1.0,47.25114440917969,47.25114440917969,0.0,51.24726486206055,51.24726486206055,0.0,50.252079010009766,50.252079010009766,0.0,1.0,1.0,0.0,'1',1.0515857934951782,1.0515857934951782,0.0,8.0
Fear,stimuli/10F_FE_O.BMP,stimuli/11F_FE_O.BMP,stimuli/10F_FE_O.BMP,stimuli/EmptyFrame.bmp,stimuli/RedFrame.bmp,2,Fear,Female,3,1,1.0,51.28572463989258,51.28572463989258,0.0,55.28347396850586,55.28347396850586,0.0,54.282928466796875,54.282928466796875,0.0,1.0,1.0,0.0,'2',0.949122428894043,0.949122428894043,0.0,9.0
Fear,stimuli/29M_FE_O.BMP,stimuli/30M_FE_O.BMP,stimuli/29M_FE_O.BMP,stimuli/EmptyFrame.bmp,stimuli/RedFrame.bmp,2,Fear,Male,3,1,1.0,55.314231872558594,55.314231872558594,0.0,59.31529235839844,59.31529235839844,0.0,58.315433502197266,58.315433502197266,0.0,1.0,1.0,0.0,'2',1.233912706375122,1.233912706375122,0.0,10.0
MatchFaces,stimuli/MatchFaces.bmp,stimuli/EmptyFace.bmp,stimuli/EmptyFace.bmp,stimuli/EmptyFrame.bmp,stimuli/EmptyFrame.bmp,Null,None,None,3,1,1.0,59.506099700927734,59.506099700927734,0.0,63.325462341308594,63.325462341308594,0.0,62.33008575439453,62.33008575439453,0.0,0.0,0.0,0.0,,,,,11.0
Neutral,stimuli/07F_NE_C.BMP,stimuli/07F_NE_C.BMP,stimuli/14F_NE_C.BMP,stimuli/EmptyFrame.bmp,stimuli/RedFrame.bmp,1,Neutral,Female,3,1,1.0,63.439064025878906,63.439064025878906,0.0,67.35518646240234,67.35518646240234,0.0,66.37067413330078,66.37067413330078,0.0,1.0,1.0,0.0,'1',1.1460237503051758,1.1460237503051758,0.0,12.0
Neutral,stimuli/25M_NE_C.BMP,stimuli/29M_NE_C.BMP,stimuli/25M_NE_C.BMP,stimuli/EmptyFrame.bmp,stimuli/RedFrame.bmp,2,Neutral,Male,3,1,1.0,67.39752960205078,67.39752960205078,0.0,71.38204956054688,71.38204956054688,0.0,70.41676330566406,70.41676330566406,0.0,1.0,1.0,0.0,'2',1.103528380393982,1.103528380393982,0.0,13.0
Neutral,stimuli/26M_NE_C.BMP,stimuli/26M_NE_C.BMP,stimuli/28M_NE_C.BMP,stimuli/EmptyFrame.bmp,stimuli/RedFrame.bmp,1,Neutral,Male,3,1,1.0,71.4136734008789,71.4136734008789,0.0,75.41004943847656,75.41004943847656,0.0,74.43001556396484,74.43001556396484,0.0,1.0,1.0,0.0,'1',1.521852731704712,1.521852731704712,0.0,14.0
Neutral,stimuli/08F_NE_C.BMP,stimuli/13F_NE_C.BMP,stimuli/08F_NE_C.BMP,stimuli/EmptyFrame.bmp,stimuli/RedFrame.bmp,2,Neutral,Female,3,1,1.0,75.44705200195312,75.44705200195312,0.0,79.42300415039062,79.42300415039062,0.0,78.44303894042969,78.44303894042969,0.0,1.0,1.0,0.0,'2',1.1294281482696533,1.1294281482696533,0.0,15.0
Neutral,stimuli/09F_NE_C.BMP,stimuli/09F_NE_C.BMP,stimuli/12F_NE_C.BMP,stimuli/EmptyFrame.bmp,stimuli/RedFrame.bmp,1,Neutral,Female,3,1,1.0,79.45339965820312,79.45339965820312,0.0,83.44303894042969,83.44303894042969,0.0,82.47345733642578,82.47345733642578,0.0,1.0,1.0,0.0,'1',1.2237563133239746,1.2237563133239746,0.0,16.0
Neutral,stimuli/27M_NE_C.BMP,stimuli/26M_NE_C.BMP,stimuli/27M_NE_C.BMP,stimuli/EmptyFrame.bmp,stimuli/RedFrame.bmp,2,Neutral,Male,3,1,1.0,83.47762298583984,83.47762298583984,0.0,87.46212768554688,87.46212768554688,0.0,86.47112274169922,86.47112274169922,0.0,1.0,1.0,0.0,'2',0.8287100195884705,0.8287100195884705,0.0,17.0
Neutral,stimuli/28M_NE_C.BMP,stimuli/28M_NE_C.BMP,stimuli/25M_NE_C.BMP,stimuli/EmptyFrame.bmp,stimuli/RedFrame.bmp,1,Neutral,Male,3,1,1.0,87.48434448242188,87.48434448242188,0.0,91.49163818359375,91.49163818359375,0.0,90.50062561035156,90.50062561035156,0.0,1.0,1.0,0.0,'1',1.4687267541885376,1.4687267541885376,0.0,18.0
Neutral,stimuli/10F_NE_C.BMP,stimuli/11F_NE_C.BMP,stimuli/10F_NE_C.BMP,stimuli/EmptyFrame.bmp,stimuli/RedFrame.bmp,2,Neutral,Female,3,1,1.0,91.52421569824219,91.52421569824219,0.0,95.5157699584961,95.5157699584961,0.0,94.51883697509766,94.51883697509766,0.0,1.0,1.0,0.0,'2',0.9490125775337219,0.9490125775337219,0.0,19.0
Neutral,stimuli/29M_NE_C.BMP,stimuli/29M_NE_C.BMP,stimuli/24M_NE_C.BMP,stimuli/EmptyFrame.bmp,stimuli/RedFrame.bmp,1,Neutral,Male,3,1,1.0,95.54581451416016,95.54581451416016,0.0,99.54032897949219,99.54032897949219,0.0,98.54776763916016,98.54776763916016,0.0,1.0,1.0,0.0,'1',1.303235411643982,1.303235411643982,0.0,20.0
Neutral,stimuli/11F_NE_C.BMP,stimuli/10F_NE_C.BMP,stimuli/11F_NE_C.BMP,stimuli/EmptyFrame.bmp,stimuli/RedFrame.bmp,2,Neutral,Female,3,1,1.0,99.56330108642578,99.56330108642578,0.0,103.55559539794922,103.55559539794922,0.0,102.57796478271484,102.57796478271484,0.0,1.0,1.0,0.0,'2',0.9346038103103638,0.9346038103103638,0.0,21.0
MatchShape,stimuli/MatchShapes.bmp,stimuli/EmptyFace.bmp,stimuli/EmptyFace.bmp,stimuli/EmptyFrame.bmp,stimuli/EmptyFrame.bmp,Null,None,None,3,1,1.0,103.58419799804688,103.58419799804688,0.0,107.55775451660156,107.55775451660156,0.0,106.57747650146484,106.57747650146484,0.0,0.0,0.0,0.0,,,,,22.0
Shape,stimuli/circle.bmp,stimuli/vertical.bmp,stimuli/circle.bmp,stimuli/EmptyFrame.bmp,stimuli/RedFrame.bmp,2,Shape,None,3,1,1.0,107.6229248046875,107.6229248046875,0.0,111.57196044921875,111.57196044921875,0.0,110.59640502929688,110.59640502929688,0.0,1.0,1.0,0.0,'2',0.9416298270225525,0.9416298270225525,0.0,23.0
Shape,stimuli/horizontal.bmp,stimuli/circle.bmp,stimuli/horizontal.bmp,stimuli/EmptyFrame.bmp,stimuli/RedFrame.bmp,2,Shape,None,3,1,1.0,111.59677124023438,111.59677124023438,0.0,115.58897399902344,115.58897399902344,0.0,114.59615325927734,114.59615325927734,0.0,1.0,1.0,0.0,'2',1.1472781896591187,1.1472781896591187,0.0,24.0
Shape,stimuli/circle.bmp,stimuli/vertical.bmp,stimuli/circle.bmp,stimuli/EmptyFrame.bmp,stimuli/RedFrame.bmp,2,Shape,None,3,1,1.0,115.61168670654297,115.61168670654297,0.0,119.61778259277344,119.61778259277344,0.0,118.62151336669922,118.62151336669922,0.0,1.0,1.0,0.0,'2',1.2681041955947876,1.2681041955947876,0.0,25.0
Shape,stimuli/vertical.bmp,stimuli/circle.bmp,stimuli/vertical.bmp,stimuli/EmptyFrame.bmp,stimuli/RedFrame.bmp,2,Shape,None,3,1,1.0,119.64459228515625,119.64459228515625,0.0,123.63931274414062,123.63931274414062,0.0,122.64674377441406,122.64674377441406,0.0,1.0,1.0,0.0,'2',1.250903606414795,1.250903606414795,0.0,26.0
Shape,stimuli/vertical.bmp,stimuli/horizontal.bmp,stimuli/vertical.bmp,stimuli/EmptyFrame.bmp,stimuli/RedFrame.bmp,2,Shape,None,3,1,1.0,123.66094207763672,123.66094207763672,0.0,127.66932678222656,127.66932678222656,0.0,126.6710433959961,126.6710433959961,0.0,1.0,1.0,0.0,'2',1.21654212474823,1.21654212474823,0.0,27.0
Shape,stimuli/horizontal.bmp,stimuli/horizontal.bmp,stimuli/vertical.bmp,stimuli/EmptyFrame.bmp,stimuli/RedFrame.bmp,1,Shape,None,3,1,1.0,127.691650390625,127.691650390625,0.0,131.68603515625,131.68603515625,0.0,130.6938934326172,130.6938934326172,0.0,0.0,0.0,0.0,'2',1.4750511646270752,1.4750511646270752,0.0,28.0
Shape,stimuli/horizontal.bmp,stimuli/circle.bmp,stimuli/horizontal.bmp,stimuli/EmptyFrame.bmp,stimuli/RedFrame.bmp,2,Shape,None,3,1,1.0,131.70973205566406,131.70973205566406,0.0,135.71234130859375,135.71234130859375,0.0,134.7163848876953,134.7163848876953,0.0,1.0,1.0,0.0,'2',1.5685598850250244,1.5685598850250244,0.0,29.0
Shape,stimuli/circle.bmp,stimuli/circle.bmp,stimuli/vertical.bmp,stimuli/EmptyFrame.bmp,stimuli/RedFrame.bmp,1,Shape,None,3,1,1.0,135.73300170898438,135.73300170898438,0.0,139.74229431152344,139.74229431152344,0.0,138.75985717773438,138.75985717773438,0.0,1.0,1.0,0.0,'1',0.9817497730255127,0.9817497730255127,0.0,30.0
Shape,stimuli/vertical.bmp,stimuli/horizontal.bmp,stimuli/vertical.bmp,stimuli/EmptyFrame.bmp,stimuli/RedFrame.bmp,2,Shape,None,3,1,1.0,139.77590942382812,139.77590942382812,0.0,143.7615966796875,143.7615966796875,0.0,142.7952423095703,142.7952423095703,0.0,1.0,1.0,0.0,'2',1.9087674617767334,1.9087674617767334,0.0,31.0
Shape,stimuli/vertical.bmp,stimuli/vertical.bmp,stimuli/horizontal.bmp,stimuli/EmptyFrame.bmp,stimuli/RedFrame.bmp,1,Shape,None,3,1,1.0,143.78140258789062,143.78140258789062,0.0,147.78184509277344,147.78184509277344,0.0,146.7891845703125,146.7891845703125,0.0,1.0,1.0,0.0,'1',1.3123588562011719,1.3123588562011719,0.0,32.0
MatchFaces,stimuli/MatchFaces.bmp,stimuli/EmptyFace.bmp,stimuli/EmptyFace.bmp,stimuli/EmptyFrame.bmp,stimuli/EmptyFrame.bmp,Null,None,None,3,1,1.0,147.9720458984375,147.9720458984375,0.0,151.79544067382812,151.79544067382812,0.0,150.79563903808594,150.79563903808594,0.0,0.0,0.0,0.0,,,,,33.0
Anger,stimuli/20M_AN_O.BMP,stimuli/34M_AN_O.BMP,stimuli/20M_AN_O.BMP,stimuli/EmptyFrame.bmp,stimuli/RedFrame.bmp,2,Anger,Male,3,1,1.0,151.907958984375,151.907958984375,0.0,155.8217010498047,155.8217010498047,0.0,154.8312530517578,154.8312530517578,0.0,1.0,1.0,0.0,'2',1.5165857076644897,1.5165857076644897,0.0,34.0
Anger,stimuli/01F_AN_O.bmp,stimuli/19F_AN_O.BMP,stimuli/01F_AN_O.bmp,stimuli/EmptyFrame.bmp,stimuli/RedFrame.bmp,2,Anger,Female,3,1,1.0,155.85353088378906,155.85353088378906,0.0,159.8373565673828,159.8373565673828,0.0,158.86061096191406,158.86061096191406,0.0,1.0,1.0,0.0,'2',1.4388751983642578,1.4388751983642578,0.0,35.0
Anger,stimuli/06F_AN_O.bmp,stimuli/15F_AN_O.BMP,stimuli/06F_AN_O.bmp,stimuli/EmptyFrame.bmp,stimuli/RedFrame.bmp,2,Anger,Female,3,1,1.0,159.86676025390625,159.86676025390625,0.0,163.85940551757812,163.85940551757812,0.0,162.87396240234375,162.87396240234375,0.0,1.0,1.0,0.0,'2',1.5067087411880493,1.5067087411880493,0.0,36.0
Anger,stimuli/42M_AN_O.BMP,stimuli/42M_AN_O.BMP,stimuli/43M_AN_O.BMP,stimuli/EmptyFrame.bmp,stimuli/RedFrame.bmp,1,Anger,Male,3,1,1.0,163.89833068847656,163.89833068847656,0.0,167.87506103515625,167.87506103515625,0.0,166.89048767089844,166.89048767089844,0.0,1.0,1.0,0.0,'1',1.0965230464935303,1.0965230464935303,0.0,37.0
Anger,stimuli/40M_AN_O.BMP,stimuli/41M_AN_O.BMP,stimuli/40M_AN_O.BMP,stimuli/EmptyFrame.bmp,stimuli/RedFrame.bmp,2,Anger,Male,3,1,1.0,167.90679931640625,167.90679931640625,0.0,171.8919219970703,171.8919219970703,0.0,170.91680908203125,170.91680908203125,0.0,1.0,1.0,0.0,'2',1.3302948474884033,1.3302948474884033,0.0,38.0
Anger,stimuli/08F_AN_O.BMP,stimuli/08F_AN_O.BMP,stimuli/13F_AN_O.BMP,stimuli/EmptyFrame.bmp,stimuli/RedFrame.bmp,1,Anger,Female,3,1,1.0,171.92274475097656,171.92274475097656,0.0,175.91781616210938,175.91781616210938,0.0,174.91937255859375,174.91937255859375,0.0,1.0,1.0,0.0,'1',1.4064027070999146,1.4064027070999146,0.0,39.0
Anger,stimuli/09F_AN_O.BMP,stimuli/12F_AN_O.BMP,stimuli/09F_AN_O.BMP,stimuli/EmptyFrame.bmp,stimuli/RedFrame.bmp,2,Anger,Female,3,1,1.0,175.94456481933594,175.94456481933594,0.0,179.9350128173828,179.9350128173828,0.0,178.95880126953125,178.95880126953125,0.0,1.0,1.0,0.0,'2',2.1872143745422363,2.1872143745422363,0.0,40.0
Anger,stimuli/34M_AN_O.BMP,stimuli/35M_AN_O.BMP,stimuli/34M_AN_O.BMP,stimuli/EmptyFrame.bmp,stimuli/RedFrame.bmp,2,Anger,Male,3,1,1.0,179.9636688232422,179.9636688232422,0.0,183.953857421875,183.953857421875,0.0,182.96788024902344,182.96788024902344,0.0,1.0,1.0,0.0,'2',1.3672206401824951,1.3672206401824951,0.0,41.0
Anger,stimuli/24M_AN_O.BMP,stimuli/24M_AN_O.BMP,stimuli/30M_AN_O.BMP,stimuli/EmptyFrame.bmp,stimuli/RedFrame.bmp,1,Anger,Male,3,1,1.0,183.98361206054688,183.98361206054688,0.0,187.99221801757812,187.99221801757812,0.0,186.99435424804688,186.99435424804688,0.0,1.0,1.0,0.0,'1',1.528867244720459,1.528867244720459,0.0,42.0
Anger,stimuli/03F_AN_O.bmp,stimuli/03F_AN_O.bmp,stimuli/17F_AN_O.BMP,stimuli/EmptyFrame.bmp,stimuli/RedFrame.bmp,1,Anger,Female,3,1,1.0,188.05618286132812,188.05618286132812,0.0,192.0302276611328,192.0302276611328,0.0,191.04005432128906,191.04005432128906,0.0,1.0,1.0,0.0,'1',1.1969707012176514,1.1969707012176514,0.0,43.0
MatchFaces,stimuli/MatchFaces.bmp,stimuli/EmptyFace.bmp,stimuli/EmptyFace.bmp,stimuli/EmptyFrame.bmp,stimuli/EmptyFrame.bmp,Null,None,None,3,1,1.0,192.45352172851562,192.45352172851562,0.0,196.04403686523438,196.04403686523438,0.0,195.0409393310547,195.0409393310547,0.0,0.0,0.0,0.0,,,,,44.0
Happy,stimuli/06F_HA_O.bmp,stimuli/07F_HA_O.BMP,stimuli/06F_HA_O.bmp,stimuli/EmptyFrame.bmp,stimuli/RedFrame.bmp,2,Happy,Female,3,1,1.0,196.17095947265625,196.17095947265625,0.0,200.08212280273438,200.08212280273438,0.0,199.10189819335938,199.10189819335938,0.0,1.0,1.0,0.0,'2',1.3226431608200073,1.3226431608200073,0.0,45.0
Happy,stimuli/13F_HA_O.BMP,stimuli/13F_HA_O.BMP,stimuli/12F_HA_O.BMP,stimuli/EmptyFrame.bmp,stimuli/RedFrame.bmp,1,Happy,Female,3,1,1.0,200.1135711669922,200.1135711669922,0.0,204.09759521484375,204.09759521484375,0.0,203.118408203125,203.118408203125,0.0,1.0,1.0,0.0,'1',1.2692983150482178,1.2692983150482178,0.0,46.0
Happy,stimuli/41M_HA_O.BMP,stimuli/41M_HA_O.BMP,stimuli/40M_HA_O.BMP,stimuli/EmptyFrame.bmp,stimuli/RedFrame.bmp,1,Happy,Male,3,1,1.0,204.12832641601562,204.12832641601562,0.0,208.12554931640625,208.12554931640625,0.0,207.15155029296875,207.15155029296875,0.0,1.0,1.0,0.0,'1',1.3796231746673584,1.3796231746673584,0.0,47.0
Happy,stimuli/03F_HA_O.bmp,stimuli/05F_HA_O.bmp,stimuli/03F_HA_O.bmp,stimuli/EmptyFrame.bmp,stimuli/RedFrame.bmp,2,Happy,Female,3,1,1.0,208.17984008789062,208.17984008789062,0.0,212.14047241210938,212.14047241210938,0.0,211.16769409179688,211.16769409179688,0.0,1.0,1.0,0.0,'2',1.517754316329956,1.517754316329956,0.0,48.0
Happy,stimuli/24M_HA_O.BMP,stimuli/24M_HA_O.BMP,stimuli/25M_HA_O.BMP,stimuli/EmptyFrame.bmp,stimuli/RedFrame.bmp,1,Happy,Male,3,1,1.0,212.1689910888672,212.1689910888672,0.0,216.16354370117188,216.16354370117188,0.0,215.19044494628906,215.19044494628906,0.0,1.0,1.0,0.0,'1',1.420173168182373,1.420173168182373,0.0,49.0
Happy,stimuli/19F_HA_O.BMP,stimuli/19F_HA_O.BMP,stimuli/18F_HA_O.BMP,stimuli/EmptyFrame.bmp,stimuli/RedFrame.bmp,1,Happy,Female,3,1,1.0,216.19952392578125,216.19952392578125,0.0,220.18600463867188,220.18600463867188,0.0,219.19760131835938,219.19760131835938,0.0,1.0,1.0,0.0,'1',1.5974657535552979,1.5974657535552979,0.0,50.0
Happy,stimuli/01F_HA_O.bmp,stimuli/01F_HA_O.bmp,stimuli/02F_HA_O.bmp,stimuli/EmptyFrame.bmp,stimuli/RedFrame.bmp,1,Happy,Female,3,1,1.0,220.23497009277344,220.23497009277344,0.0,224.2078857421875,224.2078857421875,0.0,223.23248291015625,223.23248291015625,0.0,1.0,1.0,0.0,'1',1.1100738048553467,1.1100738048553467,0.0,51.0
Happy,stimuli/22M_HA_O.BMP,stimuli/23M_HA_O.BMP,stimuli/22M_HA_O.BMP,stimuli/EmptyFrame.bmp,stimuli/RedFrame.bmp,2,Happy,Male,3,1,1.0,224.25218200683594,224.25218200683594,0.0,228.21705627441406,228.21705627441406,0.0,227.3062744140625,227.3062744140625,0.0,1.0,1.0,0.0,'2',1.2913830280303955,1.2913830280303955,0.0,52.0
Happy,stimuli/35M_HA_O.BMP,stimuli/34M_HA_O.BMP,stimuli/35M_HA_O.BMP,stimuli/EmptyFrame.bmp,stimuli/RedFrame.bmp,2,Happy,Male,3,1,1.0,228.2427215576172,228.2427215576172,0.0,232.2347412109375,232.2347412109375,0.0,231.2553253173828,231.2553253173828,0.0,1.0,1.0,0.0,'2',1.740793228149414,1.740793228149414,0.0,53.0
Happy,stimuli/39M_HA_O.BMP,stimuli/38M_HA_O.BMP,stimuli/39M_HA_O.BMP,stimuli/EmptyFrame.bmp,stimuli/RedFrame.bmp,2,Happy,Male,3,1,1.0,232.263916015625,232.263916015625,0.0,236.25169372558594,236.25169372558594,0.0,235.27017211914062,235.27017211914062,0.0,1.0,1.0,0.0,'2',1.3941015005111694,1.3941015005111694,0.0,54.0
Match Shape,stimuli/MatchShapes.bmp,stimuli/EmptyFace.bmp,stimuli/EmptyFace.bmp,stimuli/EmptyFrame.bmp,stimuli/EmptyFrame.bmp,Null,None,None,3,1,1.0,236.27572631835938,236.27572631835938,0.0,240.26156616210938,240.26156616210938,0.0,239.26133728027344,239.26133728027344,0.0,0.0,0.0,0.0,,,,,55.0
Shape,stimuli/horizontal.bmp,stimuli/horizontal.bmp,stimuli/vertical.bmp,stimuli/EmptyFrame.bmp,stimuli/RedFrame.bmp,1,Shape,None,3,1,1.0,240.3171844482422,240.3171844482422,0.0,244.27987670898438,244.27987670898438,0.0,243.29241943359375,243.29241943359375,0.0,1.0,1.0,0.0,'1',1.5615917444229126,1.5615917444229126,0.0,56.0
Shape,stimuli/horizontal.bmp,stimuli/horizontal.bmp,stimuli/circle.bmp,stimuli/EmptyFrame.bmp,stimuli/RedFrame.bmp,1,Shape,None,3,1,1.0,244.3030242919922,244.3030242919922,0.0,248.29611206054688,248.29611206054688,0.0,247.3109130859375,247.3109130859375,0.0,1.0,1.0,0.0,'1',0.8921418190002441,0.8921418190002441,0.0,57.0
Shape,stimuli/circle.bmp,stimuli/vertical.bmp,stimuli/circle.bmp,stimuli/EmptyFrame.bmp,stimuli/RedFrame.bmp,2,Shape,None,3,1,1.0,248.3203125,248.3203125,0.0,252.3143768310547,252.3143768310547,0.0,251.32342529296875,251.32342529296875,0.0,1.0,1.0,0.0,'2',1.0954391956329346,1.0954391956329346,0.0,58.0
Shape,stimuli/vertical.bmp,stimuli/vertical.bmp,stimuli/circle.bmp,stimuli/EmptyFrame.bmp,stimuli/RedFrame.bmp,1,Shape,None,3,1,1.0,252.3387908935547,252.3387908935547,0.0,256.332763671875,256.332763671875,0.0,255.3457794189453,255.3457794189453,0.0,1.0,1.0,0.0,'1',1.4107518196105957,1.4107518196105957,0.0,59.0
Shape,stimuli/horizontal.bmp,stimuli/horizontal.bmp,stimuli/circle.bmp,stimuli/EmptyFrame.bmp,stimuli/RedFrame.bmp,1,Shape,None,3,1,1.0,256.3558654785156,256.3558654785156,0.0,260.34930419921875,260.34930419921875,0.0,259.36676025390625,259.36676025390625,0.0,1.0,1.0,0.0,'1',0.9587193727493286,0.9587193727493286,0.0,60.0
Shape,stimuli/vertical.bmp,stimuli/vertical.bmp,stimuli/circle.bmp,stimuli/EmptyFrame.bmp,stimuli/RedFrame.bmp,1,Shape,None,3,1,1.0,260.37249755859375,260.37249755859375,0.0,264.3719787597656,264.3719787597656,0.0,263.3798522949219,263.3798522949219,0.0,1.0,1.0,0.0,'1',1.2765806913375854,1.2765806913375854,0.0,61.0
Shape,stimuli/horizontal.bmp,stimuli/circle.bmp,stimuli/horizontal.bmp,stimuli/EmptyFrame.bmp,stimuli/RedFrame.bmp,2,Shape,None,3,1,1.0,264.39093017578125,264.39093017578125,0.0,268.3812561035156,268.3812561035156,0.0,267.3944091796875,267.3944091796875,0.0,1.0,1.0,0.0,'2',1.1530431509017944,1.1530431509017944,0.0,62.0
Shape,stimuli/circle.bmp,stimuli/circle.bmp,stimuli/horizontal.bmp,stimuli/EmptyFrame.bmp,stimuli/RedFrame.bmp,1,Shape,None,3,1,1.0,268.4037170410156,268.4037170410156,0.0,272.3927001953125,272.3927001953125,0.0,271.40557861328125,271.40557861328125,0.0,1.0,1.0,0.0,'1',1.1024279594421387,1.1024279594421387,0.0,63.0
Shape,stimuli/circle.bmp,stimuli/horizontal.bmp,stimuli/circle.bmp,stimuli/EmptyFrame.bmp,stimuli/RedFrame.bmp,2,Shape,None,3,1,1.0,272.4127197265625,272.4127197265625,0.0,276.4042053222656,276.4042053222656,0.0,275.4278869628906,275.4278869628906,0.0,1.0,1.0,0.0,'2',1.131859540939331,1.131859540939331,0.0,64.0
Shape,stimuli/vertical.bmp,stimuli/vertical.bmp,stimuli/horizontal.bmp,stimuli/EmptyFrame.bmp,stimuli/RedFrame.bmp,1,Shape,None,3,1,1.0,276.4311828613281,276.4311828613281,0.0,280.4190368652344,280.4190368652344,0.0,279.4275817871094,279.4275817871094,0.0,1.0,1.0,0.0,'1',1.017222285270691,1.017222285270691,0.0,65.0
MatchFaces,stimuli/MatchFaces.bmp,stimuli/EmptyFace.bmp,stimuli/EmptyFace.bmp,stimuli/EmptyFrame.bmp,stimuli/EmptyFrame.bmp,Null,None,None,3,1,1.0,280.7265930175781,280.7265930175781,0.0,284.4281005859375,284.4281005859375,0.0,283.42694091796875,283.42694091796875,0.0,0.0,0.0,0.0,,,,,66.0
Neutral,stimuli/20M_NE_C.BMP,stimuli/21M_NE_C.BMP,stimuli/20M_NE_C.BMP,stimuli/EmptyFrame.bmp,stimuli/RedFrame.bmp,2,Neutral,Male,3,1,1.0,284.5039978027344,284.5039978027344,0.0,288.4462585449219,288.4462585449219,0.0,287.4586486816406,287.4586486816406,0.0,1.0,1.0,0.0,'2',1.2751961946487427,1.2751961946487427,0.0,67.0
Neutral,stimuli/01F_NE_C.bmp,stimuli/01F_NE_C.bmp,stimuli/02F_NE_C.bmp,stimuli/EmptyFrame.bmp,stimuli/RedFrame.bmp,1,Neutral,Female,3,1,1.0,288.4756164550781,288.4756164550781,0.0,292.4561462402344,292.4561462402344,0.0,291.469482421875,291.469482421875,0.0,1.0,1.0,0.0,'1',0.8005458116531372,0.8005458116531372,0.0,68.0
Neutral,stimuli/22M_NE_C.BMP,stimuli/23M_NE_C.BMP,stimuli/22M_NE_C.BMP,stimuli/EmptyFrame.bmp,stimuli/RedFrame.bmp,2,Neutral,Male,3,1,1.0,292.48162841796875,292.48162841796875,0.0,296.4707946777344,296.4707946777344,0.0,295.4888610839844,295.4888610839844,0.0,1.0,1.0,0.0,'2',1.2415180206298828,1.2415180206298828,0.0,69.0
Neutral,stimuli/24M_NE_C.BMP,stimuli/24M_NE_C.BMP,stimuli/25M_NE_C.BMP,stimuli/EmptyFrame.bmp,stimuli/RedFrame.bmp,1,Neutral,Male,3,1,1.0,296.49310302734375,296.49310302734375,0.0,300.4920959472656,300.4920959472656,0.0,299.5008850097656,299.5008850097656,0.0,1.0,1.0,0.0,'1',2.65261173248291,2.65261173248291,0.0,70.0
Neutral,stimuli/03F_NE_C.bmp,stimuli/05F_NE_C.bmp,stimuli/03F_NE_C.bmp,stimuli/EmptyFrame.bmp,stimuli/RedFrame.bmp,2,Neutral,Female,3,1,1.0,300.5234375,300.5234375,0.0,304.5148620605469,304.5148620605469,0.0,303.5240173339844,303.5240173339844,0.0,1.0,1.0,0.0,'2',1.8911434412002563,1.8911434412002563,0.0,71.0
Neutral,stimuli/26M_NE_C.BMP,stimuli/26M_NE_C.BMP,stimuli/27M_NE_C.BMP,stimuli/EmptyFrame.bmp,stimuli/RedFrame.bmp,1,Neutral,Male,3,1,1.0,304.5391540527344,304.5391540527344,0.0,308.52825927734375,308.52825927734375,0.0,307.5516662597656,307.5516662597656,0.0,1.0,1.0,0.0,'1',0.9578797817230225,0.9578797817230225,0.0,72.0
Neutral,stimuli/06F_NE_C.bmp,stimuli/07F_NE_C.BMP,stimuli/06F_NE_C.bmp,stimuli/EmptyFrame.bmp,stimuli/RedFrame.bmp,2,Neutral,Female,3,1,1.0,308.5586853027344,308.5586853027344,0.0,312.5392150878906,312.5392150878906,0.0,311.58111572265625,311.58111572265625,0.0,1.0,1.0,0.0,'2',1.4218271970748901,1.4218271970748901,0.0,73.0
Neutral,stimuli/08F_NE_C.BMP,stimuli/08F_NE_C.BMP,stimuli/09F_NE_C.BMP,stimuli/EmptyFrame.bmp,stimuli/RedFrame.bmp,1,Neutral,Female,3,1,1.0,312.56689453125,312.56689453125,0.0,316.557373046875,316.557373046875,0.0,315.5742492675781,315.5742492675781,0.0,1.0,1.0,0.0,'1',1.2024930715560913,1.2024930715560913,0.0,74.0
Neutral,stimuli/28M_NE_C.BMP,stimuli/29M_NE_C.BMP,stimuli/28M_NE_C.BMP,stimuli/EmptyFrame.bmp,stimuli/RedFrame.bmp,2,Neutral,Male,3,1,1.0,316.5828552246094,316.5828552246094,0.0,320.575439453125,320.575439453125,0.0,319.5888366699219,319.5888366699219,0.0,1.0,1.0,0.0,'2',0.9968674182891846,0.9968674182891846,0.0,75.0
Neutral,stimuli/10F_NE_C.BMP,stimuli/10F_NE_C.BMP,stimuli/06F_NE_C.bmp,stimuli/EmptyFrame.bmp,stimuli/RedFrame.bmp,1,Neutral,Female,3,1,1.0,320.6006774902344,320.6006774902344,0.0,324.5933837890625,324.5933837890625,0.0,323.61279296875,323.61279296875,0.0,1.0,1.0,0.0,'1',0.8766970038414001,0.8766970038414001,0.0,76.0
MatchFaces,stimuli/MatchFaces.bmp,stimuli/EmptyFace.bmp,stimuli/EmptyFace.bmp,stimuli/EmptyFrame.bmp,stimuli/EmptyFrame.bmp,Null,None,None,3,1,1.0,324.78631591796875,324.78631591796875,0.0,328.5971984863281,328.5971984863281,0.0,327.6088562011719,327.6088562011719,0.0,0.0,0.0,0.0,,,,,77.0
Happy,stimuli/28M_HA_O.BMP,stimuli/29M_HA_O.BMP,stimuli/28M_HA_O.BMP,stimuli/EmptyFrame.bmp,stimuli/RedFrame.bmp,2,Happy,Male,3,1,1.0,328.6770324707031,328.6770324707031,0.0,332.6117248535156,332.6117248535156,0.0,331.6298522949219,331.6298522949219,0.0,1.0,1.0,0.0,'2',1.2626780271530151,1.2626780271530151,0.0,78.0
Happy,stimuli/10F_HA_O.BMP,stimuli/10F_HA_O.BMP,stimuli/06F_HA_O.bmp,stimuli/EmptyFrame.bmp,stimuli/RedFrame.bmp,1,Happy,Female,3,1,1.0,332.6415710449219,332.6415710449219,0.0,336.62872314453125,336.62872314453125,0.0,335.65386962890625,335.65386962890625,0.0,1.0,1.0,0.0,'1',1.1451560258865356,1.1451560258865356,0.0,79.0
Happy,stimuli/26M_HA_O.BMP,stimuli/26M_HA_O.BMP,stimuli/27M_HA_O.BMP,stimuli/EmptyFrame.bmp,stimuli/RedFrame.bmp,1,Happy,Male,3,1,1.0,336.6598205566406,336.6598205566406,0.0,340.6415710449219,340.6415710449219,0.0,339.6605224609375,339.6605224609375,0.0,1.0,1.0,0.0,'1',0.9669525027275085,0.9669525027275085,0.0,80.0
Happy,stimuli/20M_HA_O.BMP,stimuli/21M_HA_O.BMP,stimuli/20M_HA_O.BMP,stimuli/EmptyFrame.bmp,stimuli/RedFrame.bmp,2,Happy,Male,3,1,1.0,340.6749572753906,340.6749572753906,0.0,344.6678466796875,344.6678466796875,0.0,343.6769714355469,343.6769714355469,0.0,1.0,1.0,0.0,'2',1.2062276601791382,1.2062276601791382,0.0,81.0
Happy,stimuli/37M_HA_O.BMP,stimuli/37M_HA_O.BMP,stimuli/36M_HA_O.BMP,stimuli/EmptyFrame.bmp,stimuli/RedFrame.bmp,1,Happy,Male,3,1,1.0,344.6996154785156,344.6996154785156,0.0,348.6866149902344,348.6866149902344,0.0,347.7125549316406,347.7125549316406,0.0,1.0,1.0,0.0,'1',1.1719460487365723,1.1719460487365723,0.0,82.0
Happy,stimuli/43M_HA_O.BMP,stimuli/42M_HA_O.BMP,stimuli/43M_HA_O.BMP,stimuli/EmptyFrame.bmp,stimuli/RedFrame.bmp,2,Happy,Male,3,1,1.0,348.7143859863281,348.7143859863281,0.0,352.7043151855469,352.7043151855469,0.0,351.7195129394531,351.7195129394531,0.0,1.0,1.0,0.0,'2',1.2262072563171387,1.2262072563171387,0.0,83.0
Happy,stimuli/11F_HA_O.BMP,stimuli/10F_HA_O.BMP,stimuli/11F_HA_O.BMP,stimuli/EmptyFrame.bmp,stimuli/RedFrame.bmp,2,Happy,Female,3,1,1.0,352.72882080078125,352.72882080078125,0.0,356.7181396484375,356.7181396484375,0.0,355.73040771484375,355.73040771484375,0.0,1.0,1.0,0.0,'2',1.1816813945770264,1.1816813945770264,0.0,84.0
Happy,stimuli/17F_HA_O.BMP,stimuli/16F_HA_O.BMP,stimuli/17F_HA_O.BMP,stimuli/EmptyFrame.bmp,stimuli/RedFrame.bmp,2,Happy,Female,3,1,1.0,356.74591064453125,356.74591064453125,0.0,360.7396545410156,360.7396545410156,0.0,359.7528991699219,359.7528991699219,0.0,1.0,1.0,0.0,'2',1.3162308931350708,1.3162308931350708,0.0,85.0
Happy,stimuli/15F_HA_O.BMP,stimuli/15F_HA_O.BMP,stimuli/14F_HA_O.BMP,stimuli/EmptyFrame.bmp,stimuli/RedFrame.bmp,1,Happy,Female,3,1,1.0,360.7682800292969,360.7682800292969,0.0,364.7558898925781,364.7558898925781,0.0,363.7653503417969,363.7653503417969,0.0,1.0,1.0,0.0,'1',1.1019052267074585,1.1019052267074585,0.0,86.0
Happy,stimuli/08F_HA_O.BMP,stimuli/08F_HA_O.BMP,stimuli/09F_HA_O.BMP,stimuli/EmptyFrame.bmp,stimuli/RedFrame.bmp,1,Happy,Female,3,1,1.0,364.7820739746094,364.7820739746094,0.0,368.7822570800781,368.7822570800781,0.0,367.78680419921875,367.78680419921875,0.0,0.0,0.0,0.0,'2',2.0673727989196777,2.0673727989196777,0.0,87.0
MatchFaces,stimuli/MatchFaces.bmp,stimuli/EmptyFace.bmp,stimuli/EmptyFace.bmp,stimuli/EmptyFrame.bmp,stimuli/EmptyFrame.bmp,Null,None,None,3,1,1.0,368.9679260253906,368.9679260253906,0.0,372.7943115234375,372.7943115234375,0.0,371.7928771972656,371.7928771972656,0.0,0.0,0.0,0.0,,,,,88.0
Fear,stimuli/34M_FE_O.BMP,stimuli/34M_FE_O.BMP,stimuli/33M_FE_O.BMP,stimuli/EmptyFrame.bmp,stimuli/RedFrame.bmp,1,Fear,Male,3,1,1.0,372.9051818847656,372.9051818847656,0.0,376.8188171386719,376.8188171386719,0.0,375.8230285644531,375.8230285644531,0.0,1.0,1.0,0.0,'1',1.4239393472671509,1.4239393472671509,0.0,89.0
Fear,stimuli/28M_FE_O.BMP,stimuli/28M_FE_O.BMP,stimuli/25M_FE_O.BMP,stimuli/EmptyFrame.bmp,stimuli/RedFrame.bmp,1,Fear,Male,3,1,1.0,376.8504333496094,376.8504333496094,0.0,380.8397521972656,380.8397521972656,0.0,379.84979248046875,379.84979248046875,0.0,1.0,1.0,0.0,'1',1.3062342405319214,1.3062342405319214,0.0,90.0
Fear,stimuli/11F_FE_O.BMP,stimuli/10F_FE_O.BMP,stimuli/11F_FE_O.BMP,stimuli/EmptyFrame.bmp,stimuli/RedFrame.bmp,2,Fear,Female,3,1,1.0,380.8638000488281,380.8638000488281,0.0,384.85064697265625,384.85064697265625,0.0,383.8676452636719,383.8676452636719,0.0,1.0,1.0,0.0,'2',0.971786379814148,0.971786379814148,0.0,91.0
Fear,stimuli/27M_FE_O.BMP,stimuli/26M_FE_O.BMP,stimuli/27M_FE_O.BMP,stimuli/EmptyFrame.bmp,stimuli/RedFrame.bmp,2,Fear,Male,3,1,1.0,384.87677001953125,384.87677001953125,0.0,388.8648376464844,388.8648376464844,0.0,387.8802795410156,387.8802795410156,0.0,1.0,1.0,0.0,'2',1.0858118534088135,1.0858118534088135,0.0,92.0
Fear,stimuli/11F_FE_O.BMP,stimuli/12F_FE_O.BMP,stimuli/11F_FE_O.BMP,stimuli/EmptyFrame.bmp,stimuli/RedFrame.bmp,2,Fear,Female,3,1,1.0,388.8924255371094,388.8924255371094,0.0,392.8822326660156,392.8822326660156,0.0,391.89483642578125,391.89483642578125,0.0,1.0,1.0,0.0,'2',1.7362183332443237,1.7362183332443237,0.0,93.0
Fear,stimuli/31M_FE_O.BMP,stimuli/31M_FE_O.BMP,stimuli/38M_FE_O.BMP,stimuli/EmptyFrame.bmp,stimuli/RedFrame.bmp,1,Fear,Male,3,1,1.0,392.90789794921875,392.90789794921875,0.0,396.90484619140625,396.90484619140625,0.0,395.9201354980469,395.9201354980469,0.0,1.0,1.0,0.0,'1',1.287239909172058,1.287239909172058,0.0,94.0
Fear,stimuli/29M_FE_O.BMP,stimuli/29M_FE_O.BMP,stimuli/24M_FE_O.BMP,stimuli/EmptyFrame.bmp,stimuli/RedFrame.bmp,1,Fear,Male,3,1,1.0,396.92913818359375,396.92913818359375,0.0,400.92559814453125,400.92559814453125,0.0,399.93817138671875,399.93817138671875,0.0,1.0,1.0,0.0,'1',1.386374831199646,1.386374831199646,0.0,95.0
Fear,stimuli/25M_FE_O.BMP,stimuli/29M_FE_O.BMP,stimuli/25M_FE_O.BMP,stimuli/EmptyFrame.bmp,stimuli/RedFrame.bmp,2,Fear,Male,3,1,1.0,400.9454345703125,400.9454345703125,0.0,404.9453125,404.9453125,0.0,403.9488830566406,403.9488830566406,0.0,1.0,1.0,0.0,'2',2.0470218658447266,2.0470218658447266,0.0,96.0
Fear,stimuli/15F_FE_O.BMP,stimuli/18F_FE_O.BMP,stimuli/15F_FE_O.BMP,stimuli/EmptyFrame.bmp,stimuli/RedFrame.bmp,2,Fear,Female,3,1,1.0,404.9692687988281,404.9692687988281,0.0,408.9624938964844,408.9624938964844,0.0,407.98785400390625,407.98785400390625,0.0,1.0,1.0,0.0,'2',1.4099894762039185,1.4099894762039185,0.0,97.0
Fear,stimuli/09F_FE_O.BMP,stimuli/09F_FE_O.BMP,stimuli/12F_FE_O.BMP,stimuli/EmptyFrame.bmp,stimuli/RedFrame.bmp,1,Fear,Female,3,1,1.0,408.9900207519531,408.9900207519531,0.0,412.97735595703125,412.97735595703125,0.0,411.9864807128906,411.9864807128906,0.0,1.0,1.0,0.0,'1',1.1076418161392212,1.1076418161392212,0.0,98.0
MatchFaces,stimuli/MatchFaces.bmp,stimuli/EmptyFace.bmp,stimuli/EmptyFace.bmp,stimuli/EmptyFrame.bmp,stimuli/EmptyFrame.bmp,Null,None,None,3,1,1.0,413.2377624511719,413.2377624511719,0.0,416.9836120605469,416.9836120605469,0.0,415.9956970214844,415.9956970214844,0.0,0.0,0.0,0.0,,,,,99.0
Anger,stimuli/23M_AN_O.BMP,stimuli/23M_AN_O.BMP,stimuli/31M_AN_O.BMP,stimuli/EmptyFrame.bmp,stimuli/RedFrame.bmp,1,Anger,Male,3,1,1.0,417.1202392578125,417.1202392578125,0.0,421.0030822753906,421.0030822753906,0.0,420.015380859375,420.015380859375,0.0,1.0,1.0,0.0,'1',1.2462286949157715,1.2462286949157715,0.0,100.0
Anger,stimuli/36M_AN_O.BMP,stimuli/37M_AN_O.BMP,stimuli/36M_AN_O.BMP,stimuli/EmptyFrame.bmp,stimuli/RedFrame.bmp,2,Anger,Male,3,1,1.0,421.0358581542969,421.0358581542969,0.0,425.0147705078125,425.0147705078125,0.0,424.0312194824219,424.0312194824219,0.0,1.0,1.0,0.0,'2',1.4272079467773438,1.4272079467773438,0.0,101.0
Anger,stimuli/38M_AN_O.BMP,stimuli/39M_AN_O.BMP,stimuli/38M_AN_O.BMP,stimuli/EmptyFrame.bmp,stimuli/RedFrame.bmp,2,Anger,Male,3,1,1.0,425.0433349609375,425.0433349609375,0.0,429.0339050292969,429.0339050292969,0.0,428.0543212890625,428.0543212890625,0.0,1.0,1.0,0.0,'2',1.3341833353042603,1.3341833353042603,0.0,102.0
Anger,stimuli/02f_an_o.bmp,stimuli/18F_AN_O.BMP,stimuli/02f_an_o.bmp,stimuli/EmptyFrame.bmp,stimuli/RedFrame.bmp,2,Anger,Female,3,1,1.0,429.0634765625,429.0634765625,0.0,433.0523986816406,433.0523986816406,0.0,432.0680236816406,432.0680236816406,0.0,1.0,1.0,0.0,'2',1.676529049873352,1.676529049873352,0.0,103.0
Anger,stimuli/22M_AN_O.BMP,stimuli/32M_AN_O.BMP,stimuli/22M_AN_O.BMP,stimuli/EmptyFrame.bmp,stimuli/RedFrame.bmp,2,Anger,Male,3,1,1.0,433.082275390625,433.082275390625,0.0,437.06439208984375,437.06439208984375,0.0,436.076416015625,436.076416015625,0.0,1.0,1.0,0.0,'2',1.0324969291687012,1.0324969291687012,0.0,104.0
Anger,stimuli/12F_AN_O.BMP,stimuli/12F_AN_O.BMP,stimuli/13F_AN_O.BMP,stimuli/EmptyFrame.bmp,stimuli/RedFrame.bmp,1,Anger,Female,3,1,1.0,437.0872802734375,437.0872802734375,0.0,441.08087158203125,441.08087158203125,0.0,440.08837890625,440.08837890625,0.0,1.0,1.0,0.0,'1',1.0259947776794434,1.0259947776794434,0.0,105.0
Anger,stimuli/05F_AN_O.bmp,stimuli/05F_AN_O.bmp,stimuli/16F_AN_O.BMP,stimuli/EmptyFrame.bmp,stimuli/RedFrame.bmp,1,Anger,Female,3,1,1.0,441.1130065917969,441.1130065917969,0.0,445.0924072265625,445.0924072265625,0.0,444.1026306152344,444.1026306152344,0.0,1.0,1.0,0.0,'1',1.0178422927856445,1.0178422927856445,0.0,106.0
Anger,stimuli/21M_AN_O.BMP,stimuli/21M_AN_O.BMP,stimuli/33M_AN_O.BMP,stimuli/EmptyFrame.bmp,stimuli/RedFrame.bmp,1,Anger,Male,3,1,1.0,445.116943359375,445.116943359375,0.0,449.11474609375,449.11474609375,0.0,448.1191711425781,448.1191711425781,0.0,1.0,1.0,0.0,'1',0.9616624712944031,0.9616624712944031,0.0,107.0
Anger,stimuli/07F_AN_O.BMP,stimuli/07F_AN_O.BMP,stimuli/14F_AN_O.BMP,stimuli/EmptyFrame.bmp,stimuli/RedFrame.bmp,1,Anger,Female,3,1,1.0,449.1455993652344,449.1455993652344,0.0,453.1361083984375,453.1361083984375,0.0,452.1495056152344,452.1495056152344,0.0,1.0,1.0,0.0,'1',1.0343929529190063,1.0343929529190063,0.0,108.0
Anger,stimuli/10F_AN_O.BMP,stimuli/10F_AN_O.BMP,stimuli/11F_AN_O.BMP,stimuli/EmptyFrame.bmp,stimuli/RedFrame.bmp,1,Anger,Female,3,1,1.0,453.16571044921875,453.16571044921875,0.0,457.1470031738281,457.1470031738281,0.0,456.1646423339844,456.1646423339844,0.0,1.0,1.0,0.0,'1',0.9068769216537476,0.9068769216537476,0.0,109.0

extraInfo
participant,sub003
session,002
date,2025_May_14_0832
expName,HaririTask_Ver2
psychopyVersion,3.0.1
frameRate,None
