TrialType,Top,Left,Right,EmptyFrame,SelectedFrame,Correct,Emotion,Gender,TrialLength,FixationLength,trials.thisRepN,trials.thisTrialN,trials.thisN,trials.thisIndex,key_resp_starttask.keys,key_resp_starttask.rt,GCBeginningFixationStartTime,GCBeginningFixationEndTime,key_resp_trial.keys,key_resp_trial.corr,GCFaceStartTime,GCPostFaceFixationStartTime,GCPostFaceFixationEndTime,key_resp_trial.rt,GCEndingFixationStartTime,GCEndingFixationEndTime,participant,session,date,expName,psychopyVersion,frameRate,
,,,,,,,,,,,,,,,5,14.324651300004916,,,,,,,,,,,sub021,002,2025_Jul_23_0912,HaririTask_Ver2,3.0.1,None,
MatchFaces,stimuli/MatchFaces.bmp,stimuli/EmptyFace.bmp,stimuli/EmptyFace.bmp,stimuli/EmptyFrame.bmp,stimuli/EmptyFrame.bmp,Null,None,None,3,1,0,0,0,0,,,3.200009814463556e-06,15.007548300010967,None,0,15.258445400002529,18.07590270000219,19.07725329999812,,,,sub021,002,2025_Jul_23_0912,HaririTask_Ver2,3.0.1,None,
Fear,stimuli/23M_FE_O.BMP,stimuli/23M_FE_O.BMP,stimuli/24M_FE_O.BMP,stimuli/EmptyFrame.bmp,stimuli/RedFrame.bmp,1,Fear,Male,3,1,0,1,1,1,,,,,1,1,19.24659480000264,22.11129030000302,23.095782500007772,1.2464755999972112,,,sub021,002,2025_Jul_23_0912,HaririTask_Ver2,3.0.1,None,
Fear,stimuli/19F_FE_O.BMP,stimuli/18F_FE_O.BMP,stimuli/19F_FE_O.BMP,stimuli/EmptyFrame.bmp,stimuli/RedFrame.bmp,2,Fear,Female,3,1,0,2,2,2,,,,,2,1,23.126097900007153,26.128354900007253,27.113063900003908,0.984788200003095,,,sub021,002,2025_Jul_23_0912,HaririTask_Ver2,3.0.1,None,
Fear,stimuli/17F_FE_O.BMP,stimuli/17F_FE_O.BMP,stimuli/16F_FE_O.BMP,stimuli/EmptyFrame.bmp,stimuli/RedFrame.bmp,1,Fear,Female,3,1,0,3,3,3,,,,,1,1,27.14148840001144,30.132763000001432,31.13499380000576,1.1503636999987066,,,sub021,002,2025_Jul_23_0912,HaririTask_Ver2,3.0.1,None,
Fear,stimuli/21M_FE_O.BMP,stimuli/21M_FE_O.BMP,stimuli/22M_FE_O.BMP,stimuli/EmptyFrame.bmp,stimuli/RedFrame.bmp,1,Fear,Male,3,1,0,4,4,4,,,,,1,1,31.165263700007927,34.16746640000201,35.158174600001075,0.973771899996791,,,sub021,002,2025_Jul_23_0912,HaririTask_Ver2,3.0.1,None,
Fear,stimuli/09F_FE_O.BMP,stimuli/07F_FE_O.BMP,stimuli/09F_FE_O.BMP,stimuli/EmptyFrame.bmp,stimuli/RedFrame.bmp,2,Fear,Female,3,1,0,5,5,5,,,,,2,1,35.186985200009076,38.19421120001061,39.17788580000342,1.138542900007451,,,sub021,002,2025_Jul_23_0912,HaririTask_Ver2,3.0.1,None,
Fear,stimuli/08F_FE_O.BMP,stimuli/13F_FE_O.BMP,stimuli/08F_FE_O.BMP,stimuli/EmptyFrame.bmp,stimuli/RedFrame.bmp,2,Fear,Female,3,1,0,6,6,6,,,,,2,1,39.20479960000375,42.198311200001626,43.191115200010245,1.15175590000581,,,sub021,002,2025_Jul_23_0912,HaririTask_Ver2,3.0.1,None,
Fear,stimuli/07F_FE_O.BMP,stimuli/07F_FE_O.BMP,stimuli/14F_FE_O.BMP,stimuli/EmptyFrame.bmp,stimuli/RedFrame.bmp,1,Fear,Female,3,1,0,7,7,7,,,,,1,1,43.21506850000878,46.21817269999883,47.209393099998124,0.9764676000049803,,,sub021,002,2025_Jul_23_0912,HaririTask_Ver2,3.0.1,None,
Fear,stimuli/26M_FE_O.BMP,stimuli/26M_FE_O.BMP,stimuli/28M_FE_O.BMP,stimuli/EmptyFrame.bmp,stimuli/RedFrame.bmp,1,Fear,Male,3,1,0,8,8,8,,,,,1,1,47.23821840000164,50.23389310001221,51.21912259999954,0.9662501999991946,,,sub021,002,2025_Jul_23_0912,HaririTask_Ver2,3.0.1,None,
Fear,stimuli/10F_FE_O.BMP,stimuli/11F_FE_O.BMP,stimuli/10F_FE_O.BMP,stimuli/EmptyFrame.bmp,stimuli/RedFrame.bmp,2,Fear,Female,3,1,0,9,9,9,,,,,2,1,51.24576970000635,54.25063740000769,55.2351931000012,0.7463752000039676,,,sub021,002,2025_Jul_23_0912,HaririTask_Ver2,3.0.1,None,
Fear,stimuli/29M_FE_O.BMP,stimuli/30M_FE_O.BMP,stimuli/29M_FE_O.BMP,stimuli/EmptyFrame.bmp,stimuli/RedFrame.bmp,2,Fear,Male,3,1,0,10,10,10,,,,,2,1,55.26273590000346,58.25917910000135,59.26119290001225,1.9296708000038052,,,sub021,002,2025_Jul_23_0912,HaririTask_Ver2,3.0.1,None,
MatchFaces,stimuli/MatchFaces.bmp,stimuli/EmptyFace.bmp,stimuli/EmptyFace.bmp,stimuli/EmptyFrame.bmp,stimuli/EmptyFrame.bmp,Null,None,None,3,1,0,11,11,11,,,,,None,0,59.41215750000265,62.27451170000131,63.26276360001066,,,,sub021,002,2025_Jul_23_0912,HaririTask_Ver2,3.0.1,None,
Neutral,stimuli/07F_NE_C.BMP,stimuli/07F_NE_C.BMP,stimuli/14F_NE_C.BMP,stimuli/EmptyFrame.bmp,stimuli/RedFrame.bmp,1,Neutral,Female,3,1,0,12,12,12,,,,,1,1,63.31167060000007,66.28465260000667,67.28071710000222,0.9343453999899793,,,sub021,002,2025_Jul_23_0912,HaririTask_Ver2,3.0.1,None,
Neutral,stimuli/25M_NE_C.BMP,stimuli/29M_NE_C.BMP,stimuli/25M_NE_C.BMP,stimuli/EmptyFrame.bmp,stimuli/RedFrame.bmp,2,Neutral,Male,3,1,0,13,13,13,,,,,2,1,67.3091209000122,70.30686240000068,71.29975620000914,1.0658345999981975,,,sub021,002,2025_Jul_23_0912,HaririTask_Ver2,3.0.1,None,
Neutral,stimuli/26M_NE_C.BMP,stimuli/26M_NE_C.BMP,stimuli/28M_NE_C.BMP,stimuli/EmptyFrame.bmp,stimuli/RedFrame.bmp,1,Neutral,Male,3,1,0,14,14,14,,,,,1,1,71.32736039999872,74.32408700000087,75.32264680000662,0.9833665000041947,,,sub021,002,2025_Jul_23_0912,HaririTask_Ver2,3.0.1,None,
Neutral,stimuli/08F_NE_C.BMP,stimuli/13F_NE_C.BMP,stimuli/08F_NE_C.BMP,stimuli/EmptyFrame.bmp,stimuli/RedFrame.bmp,2,Neutral,Female,3,1,0,15,15,15,,,,,2,1,75.34921500000928,78.34794350000448,79.3339255000028,1.3306878999865148,,,sub021,002,2025_Jul_23_0912,HaririTask_Ver2,3.0.1,None,
Neutral,stimuli/09F_NE_C.BMP,stimuli/09F_NE_C.BMP,stimuli/12F_NE_C.BMP,stimuli/EmptyFrame.bmp,stimuli/RedFrame.bmp,1,Neutral,Female,3,1,0,16,16,16,,,,,1,1,79.36471059999894,82.36190170000191,83.35431910000625,0.7583605999971041,,,sub021,002,2025_Jul_23_0912,HaririTask_Ver2,3.0.1,None,
Neutral,stimuli/27M_NE_C.BMP,stimuli/26M_NE_C.BMP,stimuli/27M_NE_C.BMP,stimuli/EmptyFrame.bmp,stimuli/RedFrame.bmp,2,Neutral,Male,3,1,0,17,17,17,,,,,2,1,83.37816370000655,86.37604410000495,87.37545669999963,1.0161447999998927,,,sub021,002,2025_Jul_23_0912,HaririTask_Ver2,3.0.1,None,
Neutral,stimuli/28M_NE_C.BMP,stimuli/28M_NE_C.BMP,stimuli/25M_NE_C.BMP,stimuli/EmptyFrame.bmp,stimuli/RedFrame.bmp,1,Neutral,Male,3,1,0,18,18,18,,,,,1,1,87.39979880000465,90.40592330000072,91.38333200001216,1.6899678999907337,,,sub021,002,2025_Jul_23_0912,HaririTask_Ver2,3.0.1,None,
Neutral,stimuli/10F_NE_C.BMP,stimuli/11F_NE_C.BMP,stimuli/10F_NE_C.BMP,stimuli/EmptyFrame.bmp,stimuli/RedFrame.bmp,2,Neutral,Female,3,1,0,19,19,19,,,,,2,1,91.40749959999812,94.41696200000297,95.40263270000287,0.9269689999928232,,,sub021,002,2025_Jul_23_0912,HaririTask_Ver2,3.0.1,None,
Neutral,stimuli/29M_NE_C.BMP,stimuli/29M_NE_C.BMP,stimuli/24M_NE_C.BMP,stimuli/EmptyFrame.bmp,stimuli/RedFrame.bmp,1,Neutral,Male,3,1,0,20,20,20,,,,,1,1,95.46103910000238,98.43702940001094,99.42349790000299,0.9027621999994153,,,sub021,002,2025_Jul_23_0912,HaririTask_Ver2,3.0.1,None,
Neutral,stimuli/11F_NE_C.BMP,stimuli/10F_NE_C.BMP,stimuli/11F_NE_C.BMP,stimuli/EmptyFrame.bmp,stimuli/RedFrame.bmp,2,Neutral,Female,3,1,0,21,21,21,,,,,2,1,99.44411050000053,102.44999950000783,103.4427510000096,0.7964619999984279,,,sub021,002,2025_Jul_23_0912,HaririTask_Ver2,3.0.1,None,
MatchShape,stimuli/MatchShapes.bmp,stimuli/EmptyFace.bmp,stimuli/EmptyFace.bmp,stimuli/EmptyFrame.bmp,stimuli/EmptyFrame.bmp,Null,None,None,3,1,0,22,22,22,,,,,None,0,103.47324240001035,106.45840080000926,107.44748329999857,,,,sub021,002,2025_Jul_23_0912,HaririTask_Ver2,3.0.1,None,
Shape,stimuli/circle.bmp,stimuli/vertical.bmp,stimuli/circle.bmp,stimuli/EmptyFrame.bmp,stimuli/RedFrame.bmp,2,Shape,None,3,1,0,23,23,23,,,,,2,1,107.4815501000121,110.46798490000947,111.46860250001191,0.8944000000046799,,,sub021,002,2025_Jul_23_0912,HaririTask_Ver2,3.0.1,None,
Shape,stimuli/horizontal.bmp,stimuli/circle.bmp,stimuli/horizontal.bmp,stimuli/EmptyFrame.bmp,stimuli/RedFrame.bmp,2,Shape,None,3,1,0,24,24,24,,,,,2,1,111.49571960000321,114.49347750000015,115.48147800000152,0.9876484999986133,,,sub021,002,2025_Jul_23_0912,HaririTask_Ver2,3.0.1,None,
Shape,stimuli/circle.bmp,stimuli/vertical.bmp,stimuli/circle.bmp,stimuli/EmptyFrame.bmp,stimuli/RedFrame.bmp,2,Shape,None,3,1,0,25,25,25,,,,,2,1,115.50516320001043,118.51321370000369,119.5009424000018,0.825679500005208,,,sub021,002,2025_Jul_23_0912,HaririTask_Ver2,3.0.1,None,
Shape,stimuli/vertical.bmp,stimuli/circle.bmp,stimuli/vertical.bmp,stimuli/EmptyFrame.bmp,stimuli/RedFrame.bmp,2,Shape,None,3,1,0,26,26,26,,,,,2,1,119.52380200001062,122.528911100002,123.52080080000451,0.7657098999916343,,,sub021,002,2025_Jul_23_0912,HaririTask_Ver2,3.0.1,None,
Shape,stimuli/vertical.bmp,stimuli/horizontal.bmp,stimuli/vertical.bmp,stimuli/EmptyFrame.bmp,stimuli/RedFrame.bmp,2,Shape,None,3,1,0,27,27,27,,,,,2,1,123.54234749999887,126.54988200000662,127.53870660001121,1.0317901999951573,,,sub021,002,2025_Jul_23_0912,HaririTask_Ver2,3.0.1,None,
Shape,stimuli/horizontal.bmp,stimuli/horizontal.bmp,stimuli/vertical.bmp,stimuli/EmptyFrame.bmp,stimuli/RedFrame.bmp,1,Shape,None,3,1,0,28,28,28,,,,,1,1,127.56397870001092,130.56988140000612,131.5513045000116,1.2696946999931242,,,sub021,002,2025_Jul_23_0912,HaririTask_Ver2,3.0.1,None,
Shape,stimuli/horizontal.bmp,stimuli/circle.bmp,stimuli/horizontal.bmp,stimuli/EmptyFrame.bmp,stimuli/RedFrame.bmp,2,Shape,None,3,1,0,29,29,29,,,,,2,1,131.573739200001,134.5841017000057,135.56310060000396,0.863746999995783,,,sub021,002,2025_Jul_23_0912,HaririTask_Ver2,3.0.1,None,
Shape,stimuli/circle.bmp,stimuli/circle.bmp,stimuli/vertical.bmp,stimuli/EmptyFrame.bmp,stimuli/RedFrame.bmp,1,Shape,None,3,1,0,30,30,30,,,,,1,1,135.5884730000107,138.59646490000887,139.57873680000193,0.7891638000000967,,,sub021,002,2025_Jul_23_0912,HaririTask_Ver2,3.0.1,None,
Shape,stimuli/vertical.bmp,stimuli/horizontal.bmp,stimuli/vertical.bmp,stimuli/EmptyFrame.bmp,stimuli/RedFrame.bmp,2,Shape,None,3,1,0,31,31,31,,,,,2,1,139.60299939999823,142.61074460000964,143.59484330000123,1.2540672000031918,,,sub021,002,2025_Jul_23_0912,HaririTask_Ver2,3.0.1,None,
Shape,stimuli/vertical.bmp,stimuli/vertical.bmp,stimuli/horizontal.bmp,stimuli/EmptyFrame.bmp,stimuli/RedFrame.bmp,1,Shape,None,3,1,0,32,32,32,,,,,1,1,143.61725840000145,146.62665580000612,147.60406850000436,0.9181434999918565,,,sub021,002,2025_Jul_23_0912,HaririTask_Ver2,3.0.1,None,
MatchFaces,stimuli/MatchFaces.bmp,stimuli/EmptyFace.bmp,stimuli/EmptyFace.bmp,stimuli/EmptyFrame.bmp,stimuli/EmptyFrame.bmp,Null,None,None,3,1,0,33,33,33,,,,,None,0,147.7418386000063,150.6124683000089,151.608332600008,,,,sub021,002,2025_Jul_23_0912,HaririTask_Ver2,3.0.1,None,
Anger,stimuli/20M_AN_O.BMP,stimuli/34M_AN_O.BMP,stimuli/20M_AN_O.BMP,stimuli/EmptyFrame.bmp,stimuli/RedFrame.bmp,2,Anger,Male,3,1,0,34,34,34,,,,,2,1,151.66255980001006,154.63111790000403,155.62624000001233,1.0766191000002436,,,sub021,002,2025_Jul_23_0912,HaririTask_Ver2,3.0.1,None,
Anger,stimuli/01F_AN_O.bmp,stimuli/19F_AN_O.BMP,stimuli/01F_AN_O.bmp,stimuli/EmptyFrame.bmp,stimuli/RedFrame.bmp,2,Anger,Female,3,1,0,35,35,35,,,,,2,1,155.6564814000012,158.6501244000101,159.63532520001172,0.6783087000076193,,,sub021,002,2025_Jul_23_0912,HaririTask_Ver2,3.0.1,None,
Anger,stimuli/06F_AN_O.bmp,stimuli/15F_AN_O.BMP,stimuli/06F_AN_O.bmp,stimuli/EmptyFrame.bmp,stimuli/RedFrame.bmp,2,Anger,Female,3,1,0,36,36,36,,,,,2,1,159.66482160000305,162.66272430001118,163.65273120001075,0.7658239000011235,,,sub021,002,2025_Jul_23_0912,HaririTask_Ver2,3.0.1,None,
Anger,stimuli/42M_AN_O.BMP,stimuli/42M_AN_O.BMP,stimuli/43M_AN_O.BMP,stimuli/EmptyFrame.bmp,stimuli/RedFrame.bmp,1,Anger,Male,3,1,0,37,37,37,,,,,1,1,163.68408420000924,166.67798440001206,167.66672069999913,1.1403281999955652,,,sub021,002,2025_Jul_23_0912,HaririTask_Ver2,3.0.1,None,
Anger,stimuli/40M_AN_O.BMP,stimuli/41M_AN_O.BMP,stimuli/40M_AN_O.BMP,stimuli/EmptyFrame.bmp,stimuli/RedFrame.bmp,2,Anger,Male,3,1,0,38,38,38,,,,,2,1,167.69382790000236,170.7057436000032,171.67825700000685,0.670198599997093,,,sub021,002,2025_Jul_23_0912,HaririTask_Ver2,3.0.1,None,
Anger,stimuli/08F_AN_O.BMP,stimuli/08F_AN_O.BMP,stimuli/13F_AN_O.BMP,stimuli/EmptyFrame.bmp,stimuli/RedFrame.bmp,1,Anger,Female,3,1,0,39,39,39,,,,,1,1,171.7072540000081,174.71076130001165,175.69552550000662,1.0706210999924224,,,sub021,002,2025_Jul_23_0912,HaririTask_Ver2,3.0.1,None,
Anger,stimuli/09F_AN_O.BMP,stimuli/12F_AN_O.BMP,stimuli/09F_AN_O.BMP,stimuli/EmptyFrame.bmp,stimuli/RedFrame.bmp,2,Anger,Female,3,1,0,40,40,40,,,,,2,1,175.72546310001053,178.71862810000312,179.7089574999991,0.686026800001855,,,sub021,002,2025_Jul_23_0912,HaririTask_Ver2,3.0.1,None,
Anger,stimuli/34M_AN_O.BMP,stimuli/35M_AN_O.BMP,stimuli/34M_AN_O.BMP,stimuli/EmptyFrame.bmp,stimuli/RedFrame.bmp,2,Anger,Male,3,1,0,41,41,41,,,,,2,1,179.73362280000583,182.72964330000104,183.71717100001115,0.8049667000013869,,,sub021,002,2025_Jul_23_0912,HaririTask_Ver2,3.0.1,None,
Anger,stimuli/24M_AN_O.BMP,stimuli/24M_AN_O.BMP,stimuli/30M_AN_O.BMP,stimuli/EmptyFrame.bmp,stimuli/RedFrame.bmp,1,Anger,Male,3,1,0,42,42,42,,,,,1,1,183.74625010001182,186.7401807999995,187.73308840001118,1.5306986999930814,,,sub021,002,2025_Jul_23_0912,HaririTask_Ver2,3.0.1,None,
Anger,stimuli/03F_AN_O.bmp,stimuli/03F_AN_O.bmp,stimuli/17F_AN_O.BMP,stimuli/EmptyFrame.bmp,stimuli/RedFrame.bmp,1,Anger,Female,3,1,0,43,43,43,,,,,1,1,187.76416760000575,190.7599901000067,191.74861610001244,1.3604597999947146,,,sub021,002,2025_Jul_23_0912,HaririTask_Ver2,3.0.1,None,
MatchFaces,stimuli/MatchFaces.bmp,stimuli/EmptyFace.bmp,stimuli/EmptyFace.bmp,stimuli/EmptyFrame.bmp,stimuli/EmptyFrame.bmp,Null,None,None,3,1,0,44,44,44,,,,,None,0,191.8797859000042,194.76128560000507,195.7588747000118,,,,sub021,002,2025_Jul_23_0912,HaririTask_Ver2,3.0.1,None,
Happy,stimuli/06F_HA_O.bmp,stimuli/07F_HA_O.BMP,stimuli/06F_HA_O.bmp,stimuli/EmptyFrame.bmp,stimuli/RedFrame.bmp,2,Happy,Female,3,1,0,45,45,45,,,,,2,1,195.80795560000115,198.78617130000202,199.77334930001234,1.0188100000086706,,,sub021,002,2025_Jul_23_0912,HaririTask_Ver2,3.0.1,None,
Happy,stimuli/13F_HA_O.BMP,stimuli/13F_HA_O.BMP,stimuli/12F_HA_O.BMP,stimuli/EmptyFrame.bmp,stimuli/RedFrame.bmp,1,Happy,Female,3,1,0,46,46,46,,,,,1,1,199.83081220000167,202.80060349999985,203.7897939000104,0.7058623000048101,,,sub021,002,2025_Jul_23_0912,HaririTask_Ver2,3.0.1,None,
Happy,stimuli/41M_HA_O.BMP,stimuli/41M_HA_O.BMP,stimuli/40M_HA_O.BMP,stimuli/EmptyFrame.bmp,stimuli/RedFrame.bmp,1,Happy,Male,3,1,0,47,47,47,,,,,1,1,203.81475510000018,206.81838399999833,207.8194555000082,0.8916350000072271,,,sub021,002,2025_Jul_23_0912,HaririTask_Ver2,3.0.1,None,
Happy,stimuli/03F_HA_O.bmp,stimuli/05F_HA_O.bmp,stimuli/03F_HA_O.bmp,stimuli/EmptyFrame.bmp,stimuli/RedFrame.bmp,2,Happy,Female,3,1,0,48,48,48,,,,,2,1,207.85585320000246,210.85112800000934,211.84275520000665,0.8921166000072844,,,sub021,002,2025_Jul_23_0912,HaririTask_Ver2,3.0.1,None,
Happy,stimuli/24M_HA_O.BMP,stimuli/24M_HA_O.BMP,stimuli/25M_HA_O.BMP,stimuli/EmptyFrame.bmp,stimuli/RedFrame.bmp,1,Happy,Male,3,1,0,49,49,49,,,,,1,1,211.86945460000425,214.86583190000965,215.85250600001018,1.4715239000070142,,,sub021,002,2025_Jul_23_0912,HaririTask_Ver2,3.0.1,None,
Happy,stimuli/19F_HA_O.BMP,stimuli/19F_HA_O.BMP,stimuli/18F_HA_O.BMP,stimuli/EmptyFrame.bmp,stimuli/RedFrame.bmp,1,Happy,Female,3,1,0,50,50,50,,,,,1,1,215.87685020000208,218.8740192000114,219.8696110000019,0.9004430999921169,,,sub021,002,2025_Jul_23_0912,HaririTask_Ver2,3.0.1,None,
Happy,stimuli/01F_HA_O.bmp,stimuli/01F_HA_O.bmp,stimuli/02F_HA_O.bmp,stimuli/EmptyFrame.bmp,stimuli/RedFrame.bmp,1,Happy,Female,3,1,0,51,51,51,,,,,1,1,219.89765199999965,222.90029380000487,223.89303990000917,0.7442568000114989,,,sub021,002,2025_Jul_23_0912,HaririTask_Ver2,3.0.1,None,
Happy,stimuli/22M_HA_O.BMP,stimuli/23M_HA_O.BMP,stimuli/22M_HA_O.BMP,stimuli/EmptyFrame.bmp,stimuli/RedFrame.bmp,2,Happy,Male,3,1,0,52,52,52,,,,,2,1,223.93471060000593,226.92669330000354,227.9103696000093,1.0720279999950435,,,sub021,002,2025_Jul_23_0912,HaririTask_Ver2,3.0.1,None,
Happy,stimuli/35M_HA_O.BMP,stimuli/34M_HA_O.BMP,stimuli/35M_HA_O.BMP,stimuli/EmptyFrame.bmp,stimuli/RedFrame.bmp,2,Happy,Male,3,1,0,53,53,53,,,,,2,1,227.94223980000243,230.9411570000084,231.93134950000967,1.2453411999886157,,,sub021,002,2025_Jul_23_0912,HaririTask_Ver2,3.0.1,None,
Happy,stimuli/39M_HA_O.BMP,stimuli/38M_HA_O.BMP,stimuli/39M_HA_O.BMP,stimuli/EmptyFrame.bmp,stimuli/RedFrame.bmp,2,Happy,Male,3,1,0,54,54,54,,,,,2,1,231.95867150000413,234.95725160000438,235.94545670000662,0.7157003000029363,,,sub021,002,2025_Jul_23_0912,HaririTask_Ver2,3.0.1,None,
Match Shape,stimuli/MatchShapes.bmp,stimuli/EmptyFace.bmp,stimuli/EmptyFace.bmp,stimuli/EmptyFrame.bmp,stimuli/EmptyFrame.bmp,Null,None,None,3,1,0,55,55,55,,,,,None,0,235.97182500000054,238.9622101999994,239.95553950000613,,,,sub021,002,2025_Jul_23_0912,HaririTask_Ver2,3.0.1,None,
Shape,stimuli/horizontal.bmp,stimuli/horizontal.bmp,stimuli/vertical.bmp,stimuli/EmptyFrame.bmp,stimuli/RedFrame.bmp,1,Shape,None,3,1,0,56,56,56,,,,,1,1,239.98364720000245,242.9806408000004,243.96455440000864,1.1723295000119833,,,sub021,002,2025_Jul_23_0912,HaririTask_Ver2,3.0.1,None,
Shape,stimuli/horizontal.bmp,stimuli/horizontal.bmp,stimuli/circle.bmp,stimuli/EmptyFrame.bmp,stimuli/RedFrame.bmp,1,Shape,None,3,1,0,57,57,57,,,,,1,1,243.98781330000202,246.99484590000066,247.9739438000106,0.6547491999954218,,,sub021,002,2025_Jul_23_0912,HaririTask_Ver2,3.0.1,None,
Shape,stimuli/circle.bmp,stimuli/vertical.bmp,stimuli/circle.bmp,stimuli/EmptyFrame.bmp,stimuli/RedFrame.bmp,2,Shape,None,3,1,0,58,58,58,,,,,2,1,247.99684370000614,251.00548320000235,251.99323269999877,0.6913571000040974,,,sub021,002,2025_Jul_23_0912,HaririTask_Ver2,3.0.1,None,
Shape,stimuli/vertical.bmp,stimuli/vertical.bmp,stimuli/circle.bmp,stimuli/EmptyFrame.bmp,stimuli/RedFrame.bmp,1,Shape,None,3,1,0,59,59,59,,,,,1,1,252.0165577000007,255.0127640999999,256.0125209000107,0.7157836999977008,,,sub021,002,2025_Jul_23_0912,HaririTask_Ver2,3.0.1,None,
Shape,stimuli/horizontal.bmp,stimuli/horizontal.bmp,stimuli/circle.bmp,stimuli/EmptyFrame.bmp,stimuli/RedFrame.bmp,1,Shape,None,3,1,0,60,60,60,,,,,1,1,256.03461120001157,259.0368717000092,260.03084790000867,0.6237515000102576,,,sub021,002,2025_Jul_23_0912,HaririTask_Ver2,3.0.1,None,
Shape,stimuli/vertical.bmp,stimuli/vertical.bmp,stimuli/circle.bmp,stimuli/EmptyFrame.bmp,stimuli/RedFrame.bmp,1,Shape,None,3,1,0,61,61,61,,,,,1,1,260.05310720000125,263.06155660000513,264.0441569000104,0.8047908000007737,,,sub021,002,2025_Jul_23_0912,HaririTask_Ver2,3.0.1,None,
Shape,stimuli/horizontal.bmp,stimuli/circle.bmp,stimuli/horizontal.bmp,stimuli/EmptyFrame.bmp,stimuli/RedFrame.bmp,2,Shape,None,3,1,0,62,62,62,,,,,2,1,264.0651854000025,267.0728725000081,268.0546137000056,0.7908675999933621,,,sub021,002,2025_Jul_23_0912,HaririTask_Ver2,3.0.1,None,
Shape,stimuli/circle.bmp,stimuli/circle.bmp,stimuli/horizontal.bmp,stimuli/EmptyFrame.bmp,stimuli/RedFrame.bmp,1,Shape,None,3,1,0,63,63,63,,,,,1,1,268.08000170000014,271.08532560001186,272.06416829999944,0.6789071000093827,,,sub021,002,2025_Jul_23_0912,HaririTask_Ver2,3.0.1,None,
Shape,stimuli/circle.bmp,stimuli/horizontal.bmp,stimuli/circle.bmp,stimuli/EmptyFrame.bmp,stimuli/RedFrame.bmp,2,Shape,None,3,1,0,64,64,64,,,,,2,1,272.0884573000076,275.08414400000765,276.0825401000038,0.870980799998506,,,sub021,002,2025_Jul_23_0912,HaririTask_Ver2,3.0.1,None,
Shape,stimuli/vertical.bmp,stimuli/vertical.bmp,stimuli/horizontal.bmp,stimuli/EmptyFrame.bmp,stimuli/RedFrame.bmp,1,Shape,None,3,1,0,65,65,65,,,,,1,1,276.10437490000913,279.11155630000576,280.1035505000036,0.6508373999968171,,,sub021,002,2025_Jul_23_0912,HaririTask_Ver2,3.0.1,None,
MatchFaces,stimuli/MatchFaces.bmp,stimuli/EmptyFace.bmp,stimuli/EmptyFace.bmp,stimuli/EmptyFrame.bmp,stimuli/EmptyFrame.bmp,Null,None,None,3,1,0,66,66,66,,,,,None,0,280.2461454000004,283.1211978000065,284.11246910000045,,,,sub021,002,2025_Jul_23_0912,HaririTask_Ver2,3.0.1,None,
Neutral,stimuli/20M_NE_C.BMP,stimuli/21M_NE_C.BMP,stimuli/20M_NE_C.BMP,stimuli/EmptyFrame.bmp,stimuli/RedFrame.bmp,2,Neutral,Male,3,1,0,67,67,67,,,,,2,1,284.1743945000053,287.1410165999987,288.1288962000108,1.005017499992391,,,sub021,002,2025_Jul_23_0912,HaririTask_Ver2,3.0.1,None,
Neutral,stimuli/01F_NE_C.bmp,stimuli/01F_NE_C.bmp,stimuli/02F_NE_C.bmp,stimuli/EmptyFrame.bmp,stimuli/RedFrame.bmp,1,Neutral,Female,3,1,0,68,68,68,,,,,1,1,288.1559566000069,291.1507752000034,292.1465662999981,0.7496459000103641,,,sub021,002,2025_Jul_23_0912,HaririTask_Ver2,3.0.1,None,
Neutral,stimuli/22M_NE_C.BMP,stimuli/23M_NE_C.BMP,stimuli/22M_NE_C.BMP,stimuli/EmptyFrame.bmp,stimuli/RedFrame.bmp,2,Neutral,Male,3,1,0,69,69,69,,,,,2,1,292.17509699999937,295.17690780000703,296.16392089999863,1.1841844000009587,,,sub021,002,2025_Jul_23_0912,HaririTask_Ver2,3.0.1,None,
Neutral,stimuli/24M_NE_C.BMP,stimuli/24M_NE_C.BMP,stimuli/25M_NE_C.BMP,stimuli/EmptyFrame.bmp,stimuli/RedFrame.bmp,1,Neutral,Male,3,1,0,70,70,70,,,,,1,1,296.18592770000396,299.19454450000194,300.18300990000716,1.3912354000058258,,,sub021,002,2025_Jul_23_0912,HaririTask_Ver2,3.0.1,None,
Neutral,stimuli/03F_NE_C.bmp,stimuli/05F_NE_C.bmp,stimuli/03F_NE_C.bmp,stimuli/EmptyFrame.bmp,stimuli/RedFrame.bmp,2,Neutral,Female,3,1,0,71,71,71,,,,,2,1,300.20961410000746,303.20690470001136,304.1952907000086,1.0151458000036655,,,sub021,002,2025_Jul_23_0912,HaririTask_Ver2,3.0.1,None,
Neutral,stimuli/26M_NE_C.BMP,stimuli/26M_NE_C.BMP,stimuli/27M_NE_C.BMP,stimuli/EmptyFrame.bmp,stimuli/RedFrame.bmp,1,Neutral,Male,3,1,0,72,72,72,,,,,1,1,304.2211890000035,307.22988610000175,308.21362450000015,0.77255179999338,,,sub021,002,2025_Jul_23_0912,HaririTask_Ver2,3.0.1,None,
Neutral,stimuli/06F_NE_C.bmp,stimuli/07F_NE_C.BMP,stimuli/06F_NE_C.bmp,stimuli/EmptyFrame.bmp,stimuli/RedFrame.bmp,2,Neutral,Female,3,1,0,73,73,73,,,,,2,1,308.23764800000936,311.2347343000001,312.2366030999983,1.2771341000043321,,,sub021,002,2025_Jul_23_0912,HaririTask_Ver2,3.0.1,None,
Neutral,stimuli/08F_NE_C.BMP,stimuli/08F_NE_C.BMP,stimuli/09F_NE_C.BMP,stimuli/EmptyFrame.bmp,stimuli/RedFrame.bmp,1,Neutral,Female,3,1,0,74,74,74,,,,,1,1,312.2610649999988,315.2642874000012,316.2505497000093,1.077810300004785,,,sub021,002,2025_Jul_23_0912,HaririTask_Ver2,3.0.1,None,
Neutral,stimuli/28M_NE_C.BMP,stimuli/29M_NE_C.BMP,stimuli/28M_NE_C.BMP,stimuli/EmptyFrame.bmp,stimuli/RedFrame.bmp,2,Neutral,Male,3,1,0,75,75,75,,,,,2,1,316.2731522000104,319.278653100002,320.27055420000397,1.199397999997018,,,sub021,002,2025_Jul_23_0912,HaririTask_Ver2,3.0.1,None,
Neutral,stimuli/10F_NE_C.BMP,stimuli/10F_NE_C.BMP,stimuli/06F_NE_C.bmp,stimuli/EmptyFrame.bmp,stimuli/RedFrame.bmp,1,Neutral,Female,3,1,0,76,76,76,,,,,1,1,320.2935460000008,323.29631420000806,324.29366070000106,0.7445213000028161,,,sub021,002,2025_Jul_23_0912,HaririTask_Ver2,3.0.1,None,
MatchFaces,stimuli/MatchFaces.bmp,stimuli/EmptyFace.bmp,stimuli/EmptyFace.bmp,stimuli/EmptyFrame.bmp,stimuli/EmptyFrame.bmp,Null,None,None,3,1,0,77,77,77,,,,,None,0,324.4311204000114,327.3065936000057,328.2960347000044,,,,sub021,002,2025_Jul_23_0912,HaririTask_Ver2,3.0.1,None,
Happy,stimuli/28M_HA_O.BMP,stimuli/29M_HA_O.BMP,stimuli/28M_HA_O.BMP,stimuli/EmptyFrame.bmp,stimuli/RedFrame.bmp,2,Happy,Male,3,1,0,78,78,78,,,,,2,1,328.34892689999833,331.32203540000774,332.3136558000115,1.3401652999891667,,,sub021,002,2025_Jul_23_0912,HaririTask_Ver2,3.0.1,None,
Happy,stimuli/10F_HA_O.BMP,stimuli/10F_HA_O.BMP,stimuli/06F_HA_O.bmp,stimuli/EmptyFrame.bmp,stimuli/RedFrame.bmp,1,Happy,Female,3,1,0,79,79,79,,,,,1,1,332.3383107000118,335.3453911000106,336.3291298000113,0.6838321999966865,,,sub021,002,2025_Jul_23_0912,HaririTask_Ver2,3.0.1,None,
Happy,stimuli/26M_HA_O.BMP,stimuli/26M_HA_O.BMP,stimuli/27M_HA_O.BMP,stimuli/EmptyFrame.bmp,stimuli/RedFrame.bmp,1,Happy,Male,3,1,0,80,80,80,,,,,1,1,336.35732100000314,339.3592600999982,340.3481471999985,0.7073524000006728,,,sub021,002,2025_Jul_23_0912,HaririTask_Ver2,3.0.1,None,
Happy,stimuli/20M_HA_O.BMP,stimuli/21M_HA_O.BMP,stimuli/20M_HA_O.BMP,stimuli/EmptyFrame.bmp,stimuli/RedFrame.bmp,2,Happy,Male,3,1,0,81,81,81,,,,,2,1,340.37674980000884,343.379288000011,344.3627799000096,1.273410599998897,,,sub021,002,2025_Jul_23_0912,HaririTask_Ver2,3.0.1,None,
Happy,stimuli/37M_HA_O.BMP,stimuli/37M_HA_O.BMP,stimuli/36M_HA_O.BMP,stimuli/EmptyFrame.bmp,stimuli/RedFrame.bmp,1,Happy,Male,3,1,0,82,82,82,,,,,1,1,344.39235340000596,347.39432650001254,348.37358120000863,1.2835639999975683,,,sub021,002,2025_Jul_23_0912,HaririTask_Ver2,3.0.1,None,
Happy,stimuli/43M_HA_O.BMP,stimuli/42M_HA_O.BMP,stimuli/43M_HA_O.BMP,stimuli/EmptyFrame.bmp,stimuli/RedFrame.bmp,2,Happy,Male,3,1,0,83,83,83,,,,,2,1,348.4298657000036,351.4146216000081,352.3901857000019,0.6391034999978729,,,sub021,002,2025_Jul_23_0912,HaririTask_Ver2,3.0.1,None,
Happy,stimuli/11F_HA_O.BMP,stimuli/10F_HA_O.BMP,stimuli/11F_HA_O.BMP,stimuli/EmptyFrame.bmp,stimuli/RedFrame.bmp,2,Happy,Female,3,1,0,84,84,84,,,,,2,1,352.41781090000586,355.4121329000045,356.41575100000773,0.8143127000075765,,,sub021,002,2025_Jul_23_0912,HaririTask_Ver2,3.0.1,None,
Happy,stimuli/17F_HA_O.BMP,stimuli/16F_HA_O.BMP,stimuli/17F_HA_O.BMP,stimuli/EmptyFrame.bmp,stimuli/RedFrame.bmp,2,Happy,Female,3,1,0,85,85,85,,,,,2,1,356.44662719999906,359.4483266000025,360.4343676999997,0.9005169000010937,,,sub021,002,2025_Jul_23_0912,HaririTask_Ver2,3.0.1,None,
Happy,stimuli/15F_HA_O.BMP,stimuli/15F_HA_O.BMP,stimuli/14F_HA_O.BMP,stimuli/EmptyFrame.bmp,stimuli/RedFrame.bmp,1,Happy,Female,3,1,0,86,86,86,,,,,1,1,360.4585883000109,363.4598160000023,364.4501805000036,1.2521246999967843,,,sub021,002,2025_Jul_23_0912,HaririTask_Ver2,3.0.1,None,
Happy,stimuli/08F_HA_O.BMP,stimuli/08F_HA_O.BMP,stimuli/09F_HA_O.BMP,stimuli/EmptyFrame.bmp,stimuli/RedFrame.bmp,1,Happy,Female,3,1,0,87,87,87,,,,,1,1,364.5084237000119,367.47866220001015,368.4698636000103,1.66786640000646,,,sub021,002,2025_Jul_23_0912,HaririTask_Ver2,3.0.1,None,
MatchFaces,stimuli/MatchFaces.bmp,stimuli/EmptyFace.bmp,stimuli/EmptyFace.bmp,stimuli/EmptyFrame.bmp,stimuli/EmptyFrame.bmp,Null,None,None,3,1,0,88,88,88,,,,,None,0,368.61600069999986,371.47827620001044,372.47945480000635,,,,sub021,002,2025_Jul_23_0912,HaririTask_Ver2,3.0.1,None,
Fear,stimuli/34M_FE_O.BMP,stimuli/34M_FE_O.BMP,stimuli/33M_FE_O.BMP,stimuli/EmptyFrame.bmp,stimuli/RedFrame.bmp,1,Fear,Male,3,1,0,89,89,89,,,,,1,1,372.5340275000053,375.5103431000025,376.4909281,0.8613807999936398,,,sub021,002,2025_Jul_23_0912,HaririTask_Ver2,3.0.1,None,
Fear,stimuli/28M_FE_O.BMP,stimuli/28M_FE_O.BMP,stimuli/25M_FE_O.BMP,stimuli/EmptyFrame.bmp,stimuli/RedFrame.bmp,1,Fear,Male,3,1,0,90,90,90,,,,,1,1,376.5192931000056,379.5220102000021,380.509993700005,1.0370676000020467,,,sub021,002,2025_Jul_23_0912,HaririTask_Ver2,3.0.1,None,
Fear,stimuli/11F_FE_O.BMP,stimuli/10F_FE_O.BMP,stimuli/11F_FE_O.BMP,stimuli/EmptyFrame.bmp,stimuli/RedFrame.bmp,2,Fear,Female,3,1,0,91,91,91,,,,,2,1,380.5348224000045,383.53047080000397,384.5265658999997,0.7316460000001825,,,sub021,002,2025_Jul_23_0912,HaririTask_Ver2,3.0.1,None,
Fear,stimuli/27M_FE_O.BMP,stimuli/26M_FE_O.BMP,stimuli/27M_FE_O.BMP,stimuli/EmptyFrame.bmp,stimuli/RedFrame.bmp,2,Fear,Male,3,1,0,92,92,92,,,,,2,1,384.5554298000061,387.56521250000515,388.53860160001204,0.8682403999991948,,,sub021,002,2025_Jul_23_0912,HaririTask_Ver2,3.0.1,None,
Fear,stimuli/11F_FE_O.BMP,stimuli/12F_FE_O.BMP,stimuli/11F_FE_O.BMP,stimuli/EmptyFrame.bmp,stimuli/RedFrame.bmp,2,Fear,Female,3,1,0,93,93,93,,,,,2,1,388.5647898000025,391.5644653000054,392.55022440000903,0.6926888000016334,,,sub021,002,2025_Jul_23_0912,HaririTask_Ver2,3.0.1,None,
Fear,stimuli/31M_FE_O.BMP,stimuli/31M_FE_O.BMP,stimuli/38M_FE_O.BMP,stimuli/EmptyFrame.bmp,stimuli/RedFrame.bmp,1,Fear,Male,3,1,0,94,94,94,,,,,1,1,392.57743600000686,395.58430270000827,396.5658313000022,0.8309554000006756,,,sub021,002,2025_Jul_23_0912,HaririTask_Ver2,3.0.1,None,
Fear,stimuli/29M_FE_O.BMP,stimuli/29M_FE_O.BMP,stimuli/24M_FE_O.BMP,stimuli/EmptyFrame.bmp,stimuli/RedFrame.bmp,1,Fear,Male,3,1,0,95,95,95,,,,,1,1,396.5900122000021,399.6143822000013,400.58489199999894,0.9026693999912823,,,sub021,002,2025_Jul_23_0912,HaririTask_Ver2,3.0.1,None,
Fear,stimuli/25M_FE_O.BMP,stimuli/29M_FE_O.BMP,stimuli/25M_FE_O.BMP,stimuli/EmptyFrame.bmp,stimuli/RedFrame.bmp,2,Fear,Male,3,1,0,96,96,96,,,,,2,1,400.60875820000365,403.610042100001,404.60180270001,0.9170982999930857,,,sub021,002,2025_Jul_23_0912,HaririTask_Ver2,3.0.1,None,
Fear,stimuli/15F_FE_O.BMP,stimuli/18F_FE_O.BMP,stimuli/15F_FE_O.BMP,stimuli/EmptyFrame.bmp,stimuli/RedFrame.bmp,2,Fear,Female,3,1,0,97,97,97,,,,,2,1,404.63284830001066,407.6384873000061,408.6138285000052,0.8024390000064159,,,sub021,002,2025_Jul_23_0912,HaririTask_Ver2,3.0.1,None,
Fear,stimuli/09F_FE_O.BMP,stimuli/09F_FE_O.BMP,stimuli/12F_FE_O.BMP,stimuli/EmptyFrame.bmp,stimuli/RedFrame.bmp,1,Fear,Female,3,1,0,98,98,98,,,,,1,1,408.63822380000784,411.64582640001026,412.6276718000008,0.7537145000096643,,,sub021,002,2025_Jul_23_0912,HaririTask_Ver2,3.0.1,None,
MatchFaces,stimuli/MatchFaces.bmp,stimuli/EmptyFace.bmp,stimuli/EmptyFace.bmp,stimuli/EmptyFrame.bmp,stimuli/EmptyFrame.bmp,Null,None,None,3,1,0,99,99,99,,,,,None,0,412.76468100000056,415.64302660000976,416.6323612999986,,,,sub021,002,2025_Jul_23_0912,HaririTask_Ver2,3.0.1,None,
Anger,stimuli/23M_AN_O.BMP,stimuli/23M_AN_O.BMP,stimuli/31M_AN_O.BMP,stimuli/EmptyFrame.bmp,stimuli/RedFrame.bmp,1,Anger,Male,3,1,0,100,100,100,,,,,1,1,416.68209030000435,419.6556442000001,420.64662350001163,0.9620197000040207,,,sub021,002,2025_Jul_23_0912,HaririTask_Ver2,3.0.1,None,
Anger,stimuli/36M_AN_O.BMP,stimuli/37M_AN_O.BMP,stimuli/36M_AN_O.BMP,stimuli/EmptyFrame.bmp,stimuli/RedFrame.bmp,2,Anger,Male,3,1,0,101,101,101,,,,,2,1,420.71159800000896,423.6793786000053,424.66410220001126,1.2105062000046019,,,sub021,002,2025_Jul_23_0912,HaririTask_Ver2,3.0.1,None,
Anger,stimuli/38M_AN_O.BMP,stimuli/39M_AN_O.BMP,stimuli/38M_AN_O.BMP,stimuli/EmptyFrame.bmp,stimuli/RedFrame.bmp,2,Anger,Male,3,1,0,102,102,102,,,,,2,1,424.6897968999983,427.6920680000039,428.6789357000089,1.5240918999916175,,,sub021,002,2025_Jul_23_0912,HaririTask_Ver2,3.0.1,None,
Anger,stimuli/02f_an_o.bmp,stimuli/18F_AN_O.BMP,stimuli/02f_an_o.bmp,stimuli/EmptyFrame.bmp,stimuli/RedFrame.bmp,2,Anger,Female,3,1,0,103,103,103,,,,,2,1,428.71016100001,431.7008443000086,432.69880750001175,0.6801806000003126,,,sub021,002,2025_Jul_23_0912,HaririTask_Ver2,3.0.1,None,
Anger,stimuli/22M_AN_O.BMP,stimuli/32M_AN_O.BMP,stimuli/22M_AN_O.BMP,stimuli/EmptyFrame.bmp,stimuli/RedFrame.bmp,2,Anger,Male,3,1,0,104,104,104,,,,,2,1,432.73019159999967,435.72204670000065,436.7150332000019,0.6947944000130519,,,sub021,002,2025_Jul_23_0912,HaririTask_Ver2,3.0.1,None,
Anger,stimuli/12F_AN_O.BMP,stimuli/12F_AN_O.BMP,stimuli/13F_AN_O.BMP,stimuli/EmptyFrame.bmp,stimuli/RedFrame.bmp,1,Anger,Female,3,1,0,105,105,105,,,,,1,1,436.73863100000017,439.74041430000216,440.72713040000235,0.8439088000013726,,,sub021,002,2025_Jul_23_0912,HaririTask_Ver2,3.0.1,None,
Anger,stimuli/05F_AN_O.bmp,stimuli/05F_AN_O.bmp,stimuli/16F_AN_O.BMP,stimuli/EmptyFrame.bmp,stimuli/RedFrame.bmp,1,Anger,Female,3,1,0,106,106,106,,,,,1,1,440.75878950000333,443.75241310001,444.7398152000096,0.7793362999946112,,,sub021,002,2025_Jul_23_0912,HaririTask_Ver2,3.0.1,None,
Anger,stimuli/21M_AN_O.BMP,stimuli/21M_AN_O.BMP,stimuli/33M_AN_O.BMP,stimuli/EmptyFrame.bmp,stimuli/RedFrame.bmp,1,Anger,Male,3,1,0,107,107,107,,,,,1,1,444.77099050000834,447.76593680000224,448.75070610000694,1.4101408999995328,,,sub021,002,2025_Jul_23_0912,HaririTask_Ver2,3.0.1,None,
Anger,stimuli/07F_AN_O.BMP,stimuli/07F_AN_O.BMP,stimuli/14F_AN_O.BMP,stimuli/EmptyFrame.bmp,stimuli/RedFrame.bmp,1,Anger,Female,3,1,0,108,108,108,,,,,1,1,448.8211666999996,451.7845215000125,452.76445890001196,0.8533850999956485,,,sub021,002,2025_Jul_23_0912,HaririTask_Ver2,3.0.1,None,
Anger,stimuli/10F_AN_O.BMP,stimuli/10F_AN_O.BMP,stimuli/11F_AN_O.BMP,stimuli/EmptyFrame.bmp,stimuli/RedFrame.bmp,1,Anger,Female,3,1,0,109,109,109,,,,,1,1,452.79355940000096,455.7907860000123,456.78466600000684,0.8058595000038622,,,sub021,002,2025_Jul_23_0912,HaririTask_Ver2,3.0.1,None,
,,,,,,,,,,,,,,,,,,,,,,,,,456.8118248000101,471.78547160000016,,,,,,,
