TrialType,Top,Left,Right,EmptyFrame,SelectedFrame,Correct,Emotion,Gender,TrialLength,FixationLength,trials.thisRepN,trials.thisTrialN,trials.thisN,trials.thisIndex,key_resp_starttask.keys,key_resp_starttask.rt,GCBeginningFixationStartTime,GCBeginningFixationEndTime,key_resp_trial.keys,key_resp_trial.corr,GCFaceStartTime,GCPostFaceFixationStartTime,GCPostFaceFixationEndTime,key_resp_trial.rt,GCEndingFixationStartTime,GCEndingFixationEndTime,participant,session,date,expName,psychopyVersion,frameRate,
,,,,,,,,,,,,,,,5,84.43659560009837,,,,,,,,,,,sub006,002,2025_May_23_0903,HaririTask_Ver1,3.0.1,None,
MatchFaces,stimuli/MatchFaces.bmp,stimuli/EmptyFace.bmp,stimuli/EmptyFace.bmp,stimuli/EmptyFrame.bmp,stimuli/EmptyFrame.bmp,Null,None,None,3,1,0,0,0,0,,,1.2996606528759003e-06,15.004035099875182,None,0,15.205827199853957,18.06991339987144,19.0495196999982,,,,sub006,002,2025_May_23_0903,HaririTask_Ver1,3.0.1,None,
Anger,stimuli/01F_AN_O.bmp,stimuli/19F_AN_O.BMP,stimuli/01F_AN_O.bmp,stimuli/EmptyFrame.bmp,stimuli/RedFrame.bmp,2,Anger,Female,3,1,0,1,1,1,,,,,2,1,19.21662630001083,22.072089599911124,23.06860539969057,2.241939699742943,,,sub006,002,2025_May_23_0903,HaririTask_Ver1,3.0.1,None,
Anger,stimuli/02f_an_o.bmp,stimuli/18F_AN_O.BMP,stimuli/02f_an_o.bmp,stimuli/EmptyFrame.bmp,stimuli/RedFrame.bmp,2,Anger,Female,3,1,0,2,2,2,,,,,2,1,23.098906700033695,26.101448599714786,27.089200099930167,1.1813809000886977,,,sub006,002,2025_May_23_0903,HaririTask_Ver1,3.0.1,None,
Anger,stimuli/20M_AN_O.BMP,stimuli/34M_AN_O.BMP,stimuli/20M_AN_O.BMP,stimuli/EmptyFrame.bmp,stimuli/RedFrame.bmp,2,Anger,Male,3,1,0,3,3,3,,,,,2,1,27.114549399819225,30.125703999772668,31.10204069968313,1.2908571003936231,,,sub006,002,2025_May_23_0903,HaririTask_Ver1,3.0.1,None,
Anger,stimuli/03F_AN_O.bmp,stimuli/03F_AN_O.bmp,stimuli/17F_AN_O.BMP,stimuli/EmptyFrame.bmp,stimuli/RedFrame.bmp,1,Anger,Female,3,1,0,4,4,4,,,,,1,1,31.12973009981215,34.13357449974865,35.12366729974747,1.11654489999637,,,sub006,002,2025_May_23_0903,HaririTask_Ver1,3.0.1,None,
Anger,stimuli/21M_AN_O.BMP,stimuli/21M_AN_O.BMP,stimuli/33M_AN_O.BMP,stimuli/EmptyFrame.bmp,stimuli/RedFrame.bmp,1,Anger,Male,3,1,0,5,5,5,,,,,1,1,35.14898049971089,38.14851969992742,39.13607689971104,1.1347332000732422,,,sub006,002,2025_May_23_0903,HaririTask_Ver1,3.0.1,None,
Anger,stimuli/22M_AN_O.BMP,stimuli/32M_AN_O.BMP,stimuli/22M_AN_O.BMP,stimuli/EmptyFrame.bmp,stimuli/RedFrame.bmp,2,Anger,Male,3,1,0,6,6,6,,,,,2,1,39.159975399728864,42.17421349976212,43.15062809968367,1.1697237002663314,,,sub006,002,2025_May_23_0903,HaririTask_Ver1,3.0.1,None,
Anger,stimuli/23M_AN_O.BMP,stimuli/23M_AN_O.BMP,stimuli/31M_AN_O.BMP,stimuli/EmptyFrame.bmp,stimuli/RedFrame.bmp,1,Anger,Male,3,1,0,7,7,7,,,,,1,1,43.17485229996964,46.185765999834985,47.169384399894625,1.1330801998265088,,,sub006,002,2025_May_23_0903,HaririTask_Ver1,3.0.1,None,
Anger,stimuli/05F_AN_O.bmp,stimuli/05F_AN_O.bmp,stimuli/16F_AN_O.BMP,stimuli/EmptyFrame.bmp,stimuli/RedFrame.bmp,1,Anger,Female,3,1,0,8,8,8,,,,,1,1,47.19616180006415,50.20655020000413,51.18543120007962,1.2968594999983907,,,sub006,002,2025_May_23_0903,HaririTask_Ver1,3.0.1,None,
Anger,stimuli/06F_AN_O.bmp,stimuli/15F_AN_O.BMP,stimuli/06F_AN_O.bmp,stimuli/EmptyFrame.bmp,stimuli/RedFrame.bmp,2,Anger,Female,3,1,0,9,9,9,,,,,2,1,51.21450599981472,54.21315489988774,55.206946399994195,1.4019590998068452,,,sub006,002,2025_May_23_0903,HaririTask_Ver1,3.0.1,None,
Anger,stimuli/24M_AN_O.BMP,stimuli/24M_AN_O.BMP,stimuli/30M_AN_O.BMP,stimuli/EmptyFrame.bmp,stimuli/RedFrame.bmp,1,Anger,Male,3,1,0,10,10,10,,,,,1,1,55.235289599746466,58.23576320009306,59.221049199812114,0.9919854998588562,,,sub006,002,2025_May_23_0903,HaririTask_Ver1,3.0.1,None,
MatchShape,stimuli/MatchShapes.bmp,stimuli/EmptyFace.bmp,stimuli/EmptyFace.bmp,stimuli/EmptyFrame.bmp,stimuli/EmptyFrame.bmp,Null,None,None,3,1,0,11,11,11,,,,,None,0,59.245524199679494,62.23020719969645,63.224906499963254,,,,sub006,002,2025_May_23_0903,HaririTask_Ver1,3.0.1,None,
Shape,stimuli/horizontal.bmp,stimuli/horizontal.bmp,stimuli/circle.bmp,stimuli/EmptyFrame.bmp,stimuli/RedFrame.bmp,1,Shape,None,3,1,0,12,12,12,,,,,1,1,63.25714450003579,66.24746269965544,67.24166540009901,1.237082699779421,,,sub006,002,2025_May_23_0903,HaririTask_Ver1,3.0.1,None,
Shape,stimuli/vertical.bmp,stimuli/horizontal.bmp,stimuli/vertical.bmp,stimuli/EmptyFrame.bmp,stimuli/RedFrame.bmp,2,Shape,None,3,1,0,13,13,13,,,,,2,1,67.2614404996857,70.26478650001809,71.25994319980964,0.8657112000510097,,,sub006,002,2025_May_23_0903,HaririTask_Ver1,3.0.1,None,
Shape,stimuli/horizontal.bmp,stimuli/horizontal.bmp,stimuli/vertical.bmp,stimuli/EmptyFrame.bmp,stimuli/RedFrame.bmp,1,Shape,None,3,1,0,14,14,14,,,,,1,1,71.27837809966877,74.28622209979221,75.27970569999889,0.8874634001404047,,,sub006,002,2025_May_23_0903,HaririTask_Ver1,3.0.1,None,
Shape,stimuli/horizontal.bmp,stimuli/circle.bmp,stimuli/horizontal.bmp,stimuli/EmptyFrame.bmp,stimuli/RedFrame.bmp,2,Shape,None,3,1,0,15,15,15,,,,,2,1,75.30559729970992,78.3562877997756,79.29565260000527,0.8753726002760231,,,sub006,002,2025_May_23_0903,HaririTask_Ver1,3.0.1,None,
Shape,stimuli/circle.bmp,stimuli/circle.bmp,stimuli/vertical.bmp,stimuli/EmptyFrame.bmp,stimuli/RedFrame.bmp,1,Shape,None,3,1,0,16,16,16,,,,,1,1,79.31954999966547,82.3176508997567,83.32172339968383,0.9948478997685015,,,sub006,002,2025_May_23_0903,HaririTask_Ver1,3.0.1,None,
Shape,stimuli/circle.bmp,stimuli/circle.bmp,stimuli/horizontal.bmp,stimuli/EmptyFrame.bmp,stimuli/RedFrame.bmp,1,Shape,None,3,1,0,17,17,17,,,,,1,1,83.34848299995065,86.34947089990601,87.33168029971421,1.0212289998307824,,,sub006,002,2025_May_23_0903,HaririTask_Ver1,3.0.1,None,
Shape,stimuli/vertical.bmp,stimuli/circle.bmp,stimuli/vertical.bmp,stimuli/EmptyFrame.bmp,stimuli/RedFrame.bmp,2,Shape,None,3,1,0,18,18,18,,,,,2,1,87.35656169988215,90.35829159989953,91.35102370008826,0.9270335999317467,,,sub006,002,2025_May_23_0903,HaririTask_Ver1,3.0.1,None,
Shape,stimuli/circle.bmp,stimuli/vertical.bmp,stimuli/circle.bmp,stimuli/EmptyFrame.bmp,stimuli/RedFrame.bmp,2,Shape,None,3,1,0,19,19,19,,,,,2,1,91.3764806999825,94.38231309968978,95.37364439992234,0.7689857999794185,,,sub006,002,2025_May_23_0903,HaririTask_Ver1,3.0.1,None,
Shape,stimuli/vertical.bmp,stimuli/horizontal.bmp,stimuli/vertical.bmp,stimuli/EmptyFrame.bmp,stimuli/RedFrame.bmp,2,Shape,None,3,1,0,20,20,20,,,,,2,1,95.39830869995058,98.4017606000416,99.38474569981918,0.8333268002606928,,,sub006,002,2025_May_23_0903,HaririTask_Ver1,3.0.1,None,
Shape,stimuli/vertical.bmp,stimuli/vertical.bmp,stimuli/circle.bmp,stimuli/EmptyFrame.bmp,stimuli/RedFrame.bmp,1,Shape,None,3,1,0,21,21,21,,,,,1,1,99.40761099988595,102.42042619967833,103.40634139999747,0.9071165001951158,,,sub006,002,2025_May_23_0903,HaririTask_Ver1,3.0.1,None,
MatchFaces,stimuli/MatchFaces.bmp,stimuli/EmptyFace.bmp,stimuli/EmptyFace.bmp,stimuli/EmptyFrame.bmp,stimuli/EmptyFrame.bmp,Null,None,None,3,1,0,22,22,22,,,,,None,0,103.56772150006145,106.42050509992987,107.40862189978361,,,,sub006,002,2025_May_23_0903,HaririTask_Ver1,3.0.1,None,
Neutral,stimuli/20M_NE_C.BMP,stimuli/21M_NE_C.BMP,stimuli/20M_NE_C.BMP,stimuli/EmptyFrame.bmp,stimuli/RedFrame.bmp,2,Neutral,Male,3,1,0,23,23,23,,,,,2,1,107.46138260001317,110.44002419989556,111.42133689997718,1.4934431998990476,,,sub006,002,2025_May_23_0903,HaririTask_Ver1,3.0.1,None,
Neutral,stimuli/01F_NE_C.bmp,stimuli/01F_NE_C.bmp,stimuli/02F_NE_C.bmp,stimuli/EmptyFrame.bmp,stimuli/RedFrame.bmp,1,Neutral,Female,3,1,0,24,24,24,,,,,1,1,111.4471876998432,114.45064749987796,115.43818520009518,0.9674100000411272,,,sub006,002,2025_May_23_0903,HaririTask_Ver1,3.0.1,None,
Neutral,stimuli/22M_NE_C.BMP,stimuli/23M_NE_C.BMP,stimuli/22M_NE_C.BMP,stimuli/EmptyFrame.bmp,stimuli/RedFrame.bmp,2,Neutral,Male,3,1,0,25,25,25,,,,,2,1,115.46265190001577,118.46765819983557,119.45064010005444,1.4007235998287797,,,sub006,002,2025_May_23_0903,HaririTask_Ver1,3.0.1,None,
Neutral,stimuli/24M_NE_C.BMP,stimuli/24M_NE_C.BMP,stimuli/25M_NE_C.BMP,stimuli/EmptyFrame.bmp,stimuli/RedFrame.bmp,1,Neutral,Male,3,1,0,26,26,26,,,,,1,1,119.4751828997396,122.49367569992319,123.47578680003062,1.174430400133133,,,sub006,002,2025_May_23_0903,HaririTask_Ver1,3.0.1,None,
Neutral,stimuli/03F_NE_C.bmp,stimuli/05F_NE_C.bmp,stimuli/03F_NE_C.bmp,stimuli/EmptyFrame.bmp,stimuli/RedFrame.bmp,2,Neutral,Female,3,1,0,27,27,27,,,,,2,1,123.49830399965867,126.50985139980912,127.4999065999873,1.1891562999226153,,,sub006,002,2025_May_23_0903,HaririTask_Ver1,3.0.1,None,
Neutral,stimuli/26M_NE_C.BMP,stimuli/26M_NE_C.BMP,stimuli/27M_NE_C.BMP,stimuli/EmptyFrame.bmp,stimuli/RedFrame.bmp,1,Neutral,Male,3,1,0,28,28,28,,,,,1,1,127.5249151000753,130.53316729981452,131.52696490008384,0.9369978001341224,,,sub006,002,2025_May_23_0903,HaririTask_Ver1,3.0.1,None,
Neutral,stimuli/06F_NE_C.bmp,stimuli/07F_NE_C.BMP,stimuli/06F_NE_C.bmp,stimuli/EmptyFrame.bmp,stimuli/RedFrame.bmp,2,Neutral,Female,3,1,0,29,29,29,,,,,2,1,131.55798419984058,134.55833299970254,135.5417761998251,1.3462907001376152,,,sub006,002,2025_May_23_0903,HaririTask_Ver1,3.0.1,None,
Neutral,stimuli/08F_NE_C.BMP,stimuli/08F_NE_C.BMP,stimuli/09F_NE_C.BMP,stimuli/EmptyFrame.bmp,stimuli/RedFrame.bmp,1,Neutral,Female,3,1,0,30,30,30,,,,,1,1,135.56489609973505,138.57620509993285,139.55885310005397,1.2487634001299739,,,sub006,002,2025_May_23_0903,HaririTask_Ver1,3.0.1,None,
Neutral,stimuli/28M_NE_C.BMP,stimuli/29M_NE_C.BMP,stimuli/28M_NE_C.BMP,stimuli/EmptyFrame.bmp,stimuli/RedFrame.bmp,2,Neutral,Male,3,1,0,31,31,31,,,,,2,1,139.5837837997824,142.58336129970849,143.5733924997039,0.8819395997561514,,,sub006,002,2025_May_23_0903,HaririTask_Ver1,3.0.1,None,
Neutral,stimuli/10F_NE_C.BMP,stimuli/10F_NE_C.BMP,stimuli/06F_NE_C.bmp,stimuli/EmptyFrame.bmp,stimuli/RedFrame.bmp,1,Neutral,Female,3,1,0,32,32,32,,,,,1,1,143.59653359977528,146.60486509976909,147.5867055999115,1.6159286997281015,,,sub006,002,2025_May_23_0903,HaririTask_Ver1,3.0.1,None,
MatchFaces,stimuli/MatchFaces.bmp,stimuli/EmptyFace.bmp,stimuli/EmptyFace.bmp,stimuli/EmptyFrame.bmp,stimuli/EmptyFrame.bmp,Null,None,None,3,1,0,33,33,33,,,,,None,0,147.73969230009243,150.60452129971236,151.60093190008774,,,,sub006,002,2025_May_23_0903,HaririTask_Ver1,3.0.1,None,
Fear,stimuli/07F_FE_O.BMP,stimuli/07F_FE_O.BMP,stimuli/14F_FE_O.BMP,stimuli/EmptyFrame.bmp,stimuli/RedFrame.bmp,1,Fear,Female,3,1,0,34,34,34,,,,,1,1,151.67309739999473,154.63586829975247,155.61598999984562,1.2137108999304473,,,sub006,002,2025_May_23_0903,HaririTask_Ver1,3.0.1,None,
Fear,stimuli/25M_FE_O.BMP,stimuli/29M_FE_O.BMP,stimuli/25M_FE_O.BMP,stimuli/EmptyFrame.bmp,stimuli/RedFrame.bmp,2,Fear,Male,3,1,0,35,35,35,,,,,2,1,155.63823089981452,158.6471911999397,159.63255749968812,1.3073779996484518,,,sub006,002,2025_May_23_0903,HaririTask_Ver1,3.0.1,None,
Fear,stimuli/26M_FE_O.BMP,stimuli/26M_FE_O.BMP,stimuli/28M_FE_O.BMP,stimuli/EmptyFrame.bmp,stimuli/RedFrame.bmp,1,Fear,Male,3,1,0,36,36,36,,,,,1,1,159.65688969986513,162.65668069990352,163.64997569983825,0.9733200999908149,,,sub006,002,2025_May_23_0903,HaririTask_Ver1,3.0.1,None,
Fear,stimuli/08F_FE_O.BMP,stimuli/13F_FE_O.BMP,stimuli/08F_FE_O.BMP,stimuli/EmptyFrame.bmp,stimuli/RedFrame.bmp,2,Fear,Female,3,1,0,37,37,37,,,,,2,1,163.67274970002472,166.6809939998202,167.6671655997634,1.1069408999755979,,,sub006,002,2025_May_23_0903,HaririTask_Ver1,3.0.1,None,
Fear,stimuli/09F_FE_O.BMP,stimuli/09F_FE_O.BMP,stimuli/12F_FE_O.BMP,stimuli/EmptyFrame.bmp,stimuli/RedFrame.bmp,1,Fear,Female,3,1,0,38,38,38,,,,,1,1,167.69018359994516,170.69936680002138,171.68834419967607,1.1078980998136103,,,sub006,002,2025_May_23_0903,HaririTask_Ver1,3.0.1,None,
Fear,stimuli/27M_FE_O.BMP,stimuli/26M_FE_O.BMP,stimuli/27M_FE_O.BMP,stimuli/EmptyFrame.bmp,stimuli/RedFrame.bmp,2,Fear,Male,3,1,0,39,39,39,,,,,2,1,171.71372410003096,174.71956310002133,175.70262809982523,1.023100099992007,,,sub006,002,2025_May_23_0903,HaririTask_Ver1,3.0.1,None,
Fear,stimuli/28M_FE_O.BMP,stimuli/28M_FE_O.BMP,stimuli/25M_FE_O.BMP,stimuli/EmptyFrame.bmp,stimuli/RedFrame.bmp,1,Fear,Male,3,1,0,40,40,40,,,,,1,1,175.7330855000764,178.73370110010728,179.71613609977067,1.2485167998820543,,,sub006,002,2025_May_23_0903,HaririTask_Ver1,3.0.1,None,
Fear,stimuli/10F_FE_O.BMP,stimuli/11F_FE_O.BMP,stimuli/10F_FE_O.BMP,stimuli/EmptyFrame.bmp,stimuli/RedFrame.bmp,2,Fear,Female,3,1,0,41,41,41,,,,,2,1,179.73732699966058,182.7483844999224,183.74020589981228,0.9280280997045338,,,sub006,002,2025_May_23_0903,HaririTask_Ver1,3.0.1,None,
Fear,stimuli/29M_FE_O.BMP,stimuli/29M_FE_O.BMP,stimuli/24M_FE_O.BMP,stimuli/EmptyFrame.bmp,stimuli/RedFrame.bmp,1,Fear,Male,3,1,0,42,42,42,,,,,1,1,183.76098260004073,186.76568679977208,187.74979420006275,0.9763956000097096,,,sub006,002,2025_May_23_0903,HaririTask_Ver1,3.0.1,None,
Fear,stimuli/11F_FE_O.BMP,stimuli/10F_FE_O.BMP,stimuli/11F_FE_O.BMP,stimuli/EmptyFrame.bmp,stimuli/RedFrame.bmp,2,Fear,Female,3,1,0,43,43,43,,,,,2,1,187.7729163998738,190.78217739984393,191.76402299990878,0.7904412997886539,,,sub006,002,2025_May_23_0903,HaririTask_Ver1,3.0.1,None,
MatchFaces,stimuli/MatchFaces.bmp,stimuli/EmptyFace.bmp,stimuli/EmptyFace.bmp,stimuli/EmptyFrame.bmp,stimuli/EmptyFrame.bmp,Null,None,None,3,1,0,44,44,44,,,,,None,0,191.95230899984017,194.780797699932,195.77636269992217,,,,sub006,002,2025_May_23_0903,HaririTask_Ver1,3.0.1,None,
Happy,stimuli/19F_HA_O.BMP,stimuli/19F_HA_O.BMP,stimuli/18F_HA_O.BMP,stimuli/EmptyFrame.bmp,stimuli/RedFrame.bmp,1,Happy,Female,3,1,0,45,45,45,,,,,1,1,195.87335169967264,198.80181569978595,199.80284569971263,1.272727300412953,,,sub006,002,2025_May_23_0903,HaririTask_Ver1,3.0.1,None,
Happy,stimuli/17F_HA_O.BMP,stimuli/16F_HA_O.BMP,stimuli/17F_HA_O.BMP,stimuli/EmptyFrame.bmp,stimuli/RedFrame.bmp,2,Happy,Female,3,1,0,46,46,46,,,,,2,1,199.83602189971134,202.84909830009565,203.82538180006668,1.0508400998078287,,,sub006,002,2025_May_23_0903,HaririTask_Ver1,3.0.1,None,
Happy,stimuli/43M_HA_O.BMP,stimuli/42M_HA_O.BMP,stimuli/43M_HA_O.BMP,stimuli/EmptyFrame.bmp,stimuli/RedFrame.bmp,2,Happy,Male,3,1,0,47,47,47,,,,,2,1,203.85073669999838,206.8529126998037,207.84301649965346,0.9744043000973761,,,sub006,002,2025_May_23_0903,HaririTask_Ver1,3.0.1,None,
Happy,stimuli/41M_HA_O.BMP,stimuli/41M_HA_O.BMP,stimuli/40M_HA_O.BMP,stimuli/EmptyFrame.bmp,stimuli/RedFrame.bmp,1,Happy,Male,3,1,0,48,48,48,,,,,1,1,207.86724360007793,210.8662319998257,211.85904779983684,1.4859680999070406,,,sub006,002,2025_May_23_0903,HaririTask_Ver1,3.0.1,None,
Happy,stimuli/15F_HA_O.BMP,stimuli/15F_HA_O.BMP,stimuli/14F_HA_O.BMP,stimuli/EmptyFrame.bmp,stimuli/RedFrame.bmp,1,Happy,Female,3,1,0,49,49,49,,,,,1,1,211.87959229992703,214.89083450008184,215.87178689986467,1.2472779001109302,,,sub006,002,2025_May_23_0903,HaririTask_Ver1,3.0.1,None,
Happy,stimuli/13F_HA_O.BMP,stimuli/13F_HA_O.BMP,stimuli/12F_HA_O.BMP,stimuli/EmptyFrame.bmp,stimuli/RedFrame.bmp,1,Happy,Female,3,1,0,50,50,50,,,,,1,1,215.8951046001166,218.89547810005024,219.88463629968464,1.1472148001194,,,sub006,002,2025_May_23_0903,HaririTask_Ver1,3.0.1,None,
Happy,stimuli/39M_HA_O.BMP,stimuli/38M_HA_O.BMP,stimuli/39M_HA_O.BMP,stimuli/EmptyFrame.bmp,stimuli/RedFrame.bmp,2,Happy,Male,3,1,0,51,51,51,,,,,2,1,219.90775789972395,222.90704370010644,223.90645299991593,1.3066493002697825,,,sub006,002,2025_May_23_0903,HaririTask_Ver1,3.0.1,None,
Happy,stimuli/37M_HA_O.BMP,stimuli/37M_HA_O.BMP,stimuli/36M_HA_O.BMP,stimuli/EmptyFrame.bmp,stimuli/RedFrame.bmp,1,Happy,Male,3,1,0,52,52,52,,,,,1,1,223.9267676998861,226.93389249965549,227.92361109983176,1.1385211003944278,,,sub006,002,2025_May_23_0903,HaririTask_Ver1,3.0.1,None,
Happy,stimuli/35M_HA_O.BMP,stimuli/34M_HA_O.BMP,stimuli/35M_HA_O.BMP,stimuli/EmptyFrame.bmp,stimuli/RedFrame.bmp,2,Happy,Male,3,1,0,53,53,53,,,,,2,1,227.9457944999449,230.9482559999451,231.93366350000724,0.9545877003110945,,,sub006,002,2025_May_23_0903,HaririTask_Ver1,3.0.1,None,
Happy,stimuli/11F_HA_O.BMP,stimuli/10F_HA_O.BMP,stimuli/11F_HA_O.BMP,stimuli/EmptyFrame.bmp,stimuli/RedFrame.bmp,2,Happy,Female,3,1,0,54,54,54,,,,,2,1,231.95699810003862,234.966163800098,235.94934879988432,0.9643152002245188,,,sub006,002,2025_May_23_0903,HaririTask_Ver1,3.0.1,None,
Match Shape,stimuli/MatchShapes.bmp,stimuli/EmptyFace.bmp,stimuli/EmptyFace.bmp,stimuli/EmptyFrame.bmp,stimuli/EmptyFrame.bmp,Null,None,None,3,1,0,55,55,55,,,,,None,0,235.97899719979614,238.9802660997957,239.96520809968933,,,,sub006,002,2025_May_23_0903,HaririTask_Ver1,3.0.1,None,
Shape,stimuli/circle.bmp,stimuli/vertical.bmp,stimuli/circle.bmp,stimuli/EmptyFrame.bmp,stimuli/RedFrame.bmp,2,Shape,None,3,1,0,56,56,56,,,,,2,1,239.99945240002126,242.9935888997279,243.97852979972959,1.0651211002841592,,,sub006,002,2025_May_23_0903,HaririTask_Ver1,3.0.1,None,
Shape,stimuli/horizontal.bmp,stimuli/circle.bmp,stimuli/horizontal.bmp,stimuli/EmptyFrame.bmp,stimuli/RedFrame.bmp,2,Shape,None,3,1,0,57,57,57,,,,,None,0,244.00600009970367,246.9972485997714,247.9845092999749,,,,sub006,002,2025_May_23_0903,HaririTask_Ver1,3.0.1,None,
Shape,stimuli/vertical.bmp,stimuli/vertical.bmp,stimuli/horizontal.bmp,stimuli/EmptyFrame.bmp,stimuli/RedFrame.bmp,1,Shape,None,3,1,0,58,58,58,,,,,1,1,248.01416900008917,251.0186760998331,251.99558009998873,1.1653060000389814,,,sub006,002,2025_May_23_0903,HaririTask_Ver1,3.0.1,None,
Shape,stimuli/horizontal.bmp,stimuli/circle.bmp,stimuli/horizontal.bmp,stimuli/EmptyFrame.bmp,stimuli/RedFrame.bmp,2,Shape,None,3,1,0,59,59,59,,,,,2,1,252.01889130007476,255.02469410002232,256.01277079991996,0.8574950001202524,,,sub006,002,2025_May_23_0903,HaririTask_Ver1,3.0.1,None,
Shape,stimuli/horizontal.bmp,stimuli/horizontal.bmp,stimuli/vertical.bmp,stimuli/EmptyFrame.bmp,stimuli/RedFrame.bmp,1,Shape,None,3,1,0,60,60,60,,,,,1,1,256.03436509985477,259.0389244998805,260.0252739000134,1.229458900168538,,,sub006,002,2025_May_23_0903,HaririTask_Ver1,3.0.1,None,
Shape,stimuli/vertical.bmp,stimuli/vertical.bmp,stimuli/circle.bmp,stimuli/EmptyFrame.bmp,stimuli/RedFrame.bmp,1,Shape,None,3,1,0,61,61,61,,,,,1,1,260.0459683998488,263.05550869973376,264.0374018000439,0.7949593001976609,,,sub006,002,2025_May_23_0903,HaririTask_Ver1,3.0.1,None,
Shape,stimuli/circle.bmp,stimuli/horizontal.bmp,stimuli/circle.bmp,stimuli/EmptyFrame.bmp,stimuli/RedFrame.bmp,2,Shape,None,3,1,0,62,62,62,,,,,2,1,264.0606420999393,267.0651400000788,268.05454639997333,1.1062288996763527,,,sub006,002,2025_May_23_0903,HaririTask_Ver1,3.0.1,None,
Shape,stimuli/circle.bmp,stimuli/vertical.bmp,stimuli/circle.bmp,stimuli/EmptyFrame.bmp,stimuli/RedFrame.bmp,2,Shape,None,3,1,0,63,63,63,,,,,2,1,268.07606499968097,271.0855169999413,272.0676164999604,0.7905091997236013,,,sub006,002,2025_May_23_0903,HaririTask_Ver1,3.0.1,None,
Shape,stimuli/vertical.bmp,stimuli/vertical.bmp,stimuli/horizontal.bmp,stimuli/EmptyFrame.bmp,stimuli/RedFrame.bmp,1,Shape,None,3,1,0,64,64,64,,,,,1,1,272.0867057996802,275.0971037996933,276.08515959978104,0.9869601000100374,,,sub006,002,2025_May_23_0903,HaririTask_Ver1,3.0.1,None,
Shape,stimuli/horizontal.bmp,stimuli/horizontal.bmp,stimuli/circle.bmp,stimuli/EmptyFrame.bmp,stimuli/RedFrame.bmp,1,Shape,None,3,1,0,65,65,65,,,,,1,1,276.1128551000729,279.1072514997795,280.09932800009847,1.0351600996218622,,,sub006,002,2025_May_23_0903,HaririTask_Ver1,3.0.1,None,
MatchFaces,stimuli/MatchFaces.bmp,stimuli/EmptyFace.bmp,stimuli/EmptyFace.bmp,stimuli/EmptyFrame.bmp,stimuli/EmptyFrame.bmp,Null,None,None,3,1,0,66,66,66,,,,,None,0,280.2811477999203,283.11380699975416,284.1027214997448,,,,sub006,002,2025_May_23_0903,HaririTask_Ver1,3.0.1,None,
Anger,stimuli/42M_AN_O.BMP,stimuli/42M_AN_O.BMP,stimuli/43M_AN_O.BMP,stimuli/EmptyFrame.bmp,stimuli/RedFrame.bmp,1,Anger,Male,3,1,0,67,67,67,,,,,1,1,284.1637132996693,287.1251336997375,288.123391199857,1.0105659998953342,,,sub006,002,2025_May_23_0903,HaririTask_Ver1,3.0.1,None,
Anger,stimuli/07F_AN_O.BMP,stimuli/07F_AN_O.BMP,stimuli/14F_AN_O.BMP,stimuli/EmptyFrame.bmp,stimuli/RedFrame.bmp,1,Anger,Female,3,1,0,68,68,68,,,,,1,1,288.14771129982546,291.1546656996943,292.14308549975976,0.9805632000789046,,,sub006,002,2025_May_23_0903,HaririTask_Ver1,3.0.1,None,
Anger,stimuli/40M_AN_O.BMP,stimuli/41M_AN_O.BMP,stimuli/40M_AN_O.BMP,stimuli/EmptyFrame.bmp,stimuli/RedFrame.bmp,2,Anger,Male,3,1,0,69,69,69,,,,,2,1,292.16431069979444,295.1745239999145,296.16864780010656,0.8645506999455392,,,sub006,002,2025_May_23_0903,HaririTask_Ver1,3.0.1,None,
Anger,stimuli/38M_AN_O.BMP,stimuli/39M_AN_O.BMP,stimuli/38M_AN_O.BMP,stimuli/EmptyFrame.bmp,stimuli/RedFrame.bmp,2,Anger,Male,3,1,0,70,70,70,,,,,2,1,296.1939995996654,299.2059356998652,300.1868638996966,0.8305561998859048,,,sub006,002,2025_May_23_0903,HaririTask_Ver1,3.0.1,None,
Anger,stimuli/08F_AN_O.BMP,stimuli/08F_AN_O.BMP,stimuli/13F_AN_O.BMP,stimuli/EmptyFrame.bmp,stimuli/RedFrame.bmp,1,Anger,Female,3,1,0,71,71,71,,,,,1,1,300.21000149985775,303.2242760998197,304.20909920008853,0.9077661000192165,,,sub006,002,2025_May_23_0903,HaririTask_Ver1,3.0.1,None,
Anger,stimuli/36M_AN_O.BMP,stimuli/37M_AN_O.BMP,stimuli/36M_AN_O.BMP,stimuli/EmptyFrame.bmp,stimuli/RedFrame.bmp,2,Anger,Male,3,1,0,72,72,72,,,,,2,1,304.23839389998466,307.23955349996686,308.2283366997726,1.0991303999908268,,,sub006,002,2025_May_23_0903,HaririTask_Ver1,3.0.1,None,
Anger,stimuli/09F_AN_O.BMP,stimuli/12F_AN_O.BMP,stimuli/09F_AN_O.BMP,stimuli/EmptyFrame.bmp,stimuli/RedFrame.bmp,2,Anger,Female,3,1,0,73,73,73,,,,,2,1,308.2578072999604,311.27062559966,312.2445785999298,1.1035060998983681,,,sub006,002,2025_May_23_0903,HaririTask_Ver1,3.0.1,None,
Anger,stimuli/34M_AN_O.BMP,stimuli/35M_AN_O.BMP,stimuli/34M_AN_O.BMP,stimuli/EmptyFrame.bmp,stimuli/RedFrame.bmp,2,Anger,Male,3,1,0,74,74,74,,,,,2,1,312.2723559997976,315.2684144997038,316.2553316000849,1.7202230002731085,,,sub006,002,2025_May_23_0903,HaririTask_Ver1,3.0.1,None,
Anger,stimuli/10F_AN_O.BMP,stimuli/10F_AN_O.BMP,stimuli/11F_AN_O.BMP,stimuli/EmptyFrame.bmp,stimuli/RedFrame.bmp,1,Anger,Female,3,1,0,75,75,75,,,,,1,1,316.27754719974473,319.2945431997068,320.28151599969715,1.6652428000234067,,,sub006,002,2025_May_23_0903,HaririTask_Ver1,3.0.1,None,
Anger,stimuli/12F_AN_O.BMP,stimuli/12F_AN_O.BMP,stimuli/13F_AN_O.BMP,stimuli/EmptyFrame.bmp,stimuli/RedFrame.bmp,1,Anger,Female,3,1,0,76,76,76,,,,,1,1,320.3100394997746,323.3071417999454,324.30552719999105,1.0383020997978747,,,sub006,002,2025_May_23_0903,HaririTask_Ver1,3.0.1,None,
MatchFaces,stimuli/MatchFaces.bmp,stimuli/EmptyFace.bmp,stimuli/EmptyFace.bmp,stimuli/EmptyFrame.bmp,stimuli/EmptyFrame.bmp,Null,None,None,3,1,0,77,77,77,,,,,None,0,324.4859919999726,327.3236429998651,328.3129814998247,,,,sub006,002,2025_May_23_0903,HaririTask_Ver1,3.0.1,None,
Happy,stimuli/20M_HA_O.BMP,stimuli/21M_HA_O.BMP,stimuli/20M_HA_O.BMP,stimuli/EmptyFrame.bmp,stimuli/RedFrame.bmp,2,Happy,Male,3,1,0,78,78,78,,,,,2,1,328.37745169969276,331.33930419990793,332.33666589995846,1.4320014002732933,,,sub006,002,2025_May_23_0903,HaririTask_Ver1,3.0.1,None,
Happy,stimuli/01F_HA_O.bmp,stimuli/01F_HA_O.bmp,stimuli/02F_HA_O.bmp,stimuli/EmptyFrame.bmp,stimuli/RedFrame.bmp,1,Happy,Female,3,1,0,79,79,79,,,,,1,1,332.3642410999164,335.3664974998683,336.3517013997771,0.8784888000227511,,,sub006,002,2025_May_23_0903,HaririTask_Ver1,3.0.1,None,
Happy,stimuli/22M_HA_O.BMP,stimuli/23M_HA_O.BMP,stimuli/22M_HA_O.BMP,stimuli/EmptyFrame.bmp,stimuli/RedFrame.bmp,2,Happy,Male,3,1,0,80,80,80,,,,,2,1,336.37391120009124,339.3762551997788,340.3772003999911,1.222225499805063,,,sub006,002,2025_May_23_0903,HaririTask_Ver1,3.0.1,None,
Happy,stimuli/24M_HA_O.BMP,stimuli/24M_HA_O.BMP,stimuli/25M_HA_O.BMP,stimuli/EmptyFrame.bmp,stimuli/RedFrame.bmp,1,Happy,Male,3,1,0,81,81,81,,,,,1,1,340.4055610001087,343.4123808001168,344.398428699933,1.2999423001892865,,,sub006,002,2025_May_23_0903,HaririTask_Ver1,3.0.1,None,
Happy,stimuli/03F_HA_O.bmp,stimuli/05F_HA_O.bmp,stimuli/03F_HA_O.bmp,stimuli/EmptyFrame.bmp,stimuli/RedFrame.bmp,2,Happy,Female,3,1,0,82,82,82,,,,,2,1,344.4217260000296,347.4305119998753,348.4204098000191,0.9907944998703897,,,sub006,002,2025_May_23_0903,HaririTask_Ver1,3.0.1,None,
Happy,stimuli/26M_HA_O.BMP,stimuli/26M_HA_O.BMP,stimuli/27M_HA_O.BMP,stimuli/EmptyFrame.bmp,stimuli/RedFrame.bmp,1,Happy,Male,3,1,0,83,83,83,,,,,1,1,348.4460549997166,351.4502292997204,352.43355379998684,1.2270919997245073,,,sub006,002,2025_May_23_0903,HaririTask_Ver1,3.0.1,None,
Happy,stimuli/06F_HA_O.bmp,stimuli/07F_HA_O.BMP,stimuli/06F_HA_O.bmp,stimuli/EmptyFrame.bmp,stimuli/RedFrame.bmp,2,Happy,Female,3,1,0,84,84,84,,,,,2,1,352.4571576998569,355.4612072999589,356.4448051000945,1.6538913003169,,,sub006,002,2025_May_23_0903,HaririTask_Ver1,3.0.1,None,
Happy,stimuli/08F_HA_O.BMP,stimuli/08F_HA_O.BMP,stimuli/09F_HA_O.BMP,stimuli/EmptyFrame.bmp,stimuli/RedFrame.bmp,1,Happy,Female,3,1,0,85,85,85,,,,,1,1,356.4638364999555,359.4725031997077,360.4564853999764,1.123133999761194,,,sub006,002,2025_May_23_0903,HaririTask_Ver1,3.0.1,None,
Happy,stimuli/28M_HA_O.BMP,stimuli/29M_HA_O.BMP,stimuli/28M_HA_O.BMP,stimuli/EmptyFrame.bmp,stimuli/RedFrame.bmp,2,Happy,Male,3,1,0,86,86,86,,,,,1,0,360.48078469978645,363.4849303998053,364.4714434999041,1.50438839988783,,,sub006,002,2025_May_23_0903,HaririTask_Ver1,3.0.1,None,
Happy,stimuli/10F_HA_O.BMP,stimuli/10F_HA_O.BMP,stimuli/06F_HA_O.bmp,stimuli/EmptyFrame.bmp,stimuli/RedFrame.bmp,1,Happy,Female,3,1,0,87,87,87,,,,,1,1,364.4953385996632,367.5050522000529,368.4954743999988,1.3652939000166953,,,sub006,002,2025_May_23_0903,HaririTask_Ver1,3.0.1,None,
MatchFaces,stimuli/MatchFaces.bmp,stimuli/EmptyFace.bmp,stimuli/EmptyFace.bmp,stimuli/EmptyFrame.bmp,stimuli/EmptyFrame.bmp,Null,None,None,3,1,0,88,88,88,,,,,None,0,368.6494665998034,371.5117709999904,372.50088569987565,,,,sub006,002,2025_May_23_0903,HaririTask_Ver1,3.0.1,None,
Neutral,stimuli/07F_NE_C.BMP,stimuli/07F_NE_C.BMP,stimuli/14F_NE_C.BMP,stimuli/EmptyFrame.bmp,stimuli/RedFrame.bmp,1,Neutral,Female,3,1,0,89,89,89,,,,,1,1,372.5640992997214,375.5295766000636,376.5205349996686,1.178588300012052,,,sub006,002,2025_May_23_0903,HaririTask_Ver1,3.0.1,None,
Neutral,stimuli/25M_NE_C.BMP,stimuli/29M_NE_C.BMP,stimuli/25M_NE_C.BMP,stimuli/EmptyFrame.bmp,stimuli/RedFrame.bmp,2,Neutral,Male,3,1,0,90,90,90,,,,,2,1,376.54827449982986,379.55984189966694,380.5413393001072,1.449135399889201,,,sub006,002,2025_May_23_0903,HaririTask_Ver1,3.0.1,None,
Neutral,stimuli/26M_NE_C.BMP,stimuli/26M_NE_C.BMP,stimuli/28M_NE_C.BMP,stimuli/EmptyFrame.bmp,stimuli/RedFrame.bmp,1,Neutral,Male,3,1,0,91,91,91,,,,,1,1,380.5664393999614,383.57399399997666,384.55913349986076,1.1445376998744905,,,sub006,002,2025_May_23_0903,HaririTask_Ver1,3.0.1,None,
Neutral,stimuli/08F_NE_C.BMP,stimuli/13F_NE_C.BMP,stimuli/08F_NE_C.BMP,stimuli/EmptyFrame.bmp,stimuli/RedFrame.bmp,2,Neutral,Female,3,1,0,92,92,92,,,,,2,1,384.5889679999091,387.5834613000043,388.58103409968317,1.0939960000105202,,,sub006,002,2025_May_23_0903,HaririTask_Ver1,3.0.1,None,
Neutral,stimuli/09F_NE_C.BMP,stimuli/09F_NE_C.BMP,stimuli/12F_NE_C.BMP,stimuli/EmptyFrame.bmp,stimuli/RedFrame.bmp,1,Neutral,Female,3,1,0,93,93,93,,,,,1,1,388.609360399656,391.60629920009524,392.5970918000676,0.9365246002562344,,,sub006,002,2025_May_23_0903,HaririTask_Ver1,3.0.1,None,
Neutral,stimuli/27M_NE_C.BMP,stimuli/26M_NE_C.BMP,stimuli/27M_NE_C.BMP,stimuli/EmptyFrame.bmp,stimuli/RedFrame.bmp,2,Neutral,Male,3,1,0,94,94,94,,,,,2,1,392.6208429997787,395.6278588999994,396.6124239000492,1.780716100241989,,,sub006,002,2025_May_23_0903,HaririTask_Ver1,3.0.1,None,
Neutral,stimuli/28M_NE_C.BMP,stimuli/28M_NE_C.BMP,stimuli/25M_NE_C.BMP,stimuli/EmptyFrame.bmp,stimuli/RedFrame.bmp,1,Neutral,Male,3,1,0,95,95,95,,,,,1,1,396.63494749972597,399.64858919987455,400.62596459966153,0.9951132000423968,,,sub006,002,2025_May_23_0903,HaririTask_Ver1,3.0.1,None,
Neutral,stimuli/10F_NE_C.BMP,stimuli/11F_NE_C.BMP,stimuli/10F_NE_C.BMP,stimuli/EmptyFrame.bmp,stimuli/RedFrame.bmp,2,Neutral,Female,3,1,0,96,96,96,,,,,2,1,400.650454999879,403.6488906997256,404.64206019975245,0.9447825001552701,,,sub006,002,2025_May_23_0903,HaririTask_Ver1,3.0.1,None,
Neutral,stimuli/29M_NE_C.BMP,stimuli/29M_NE_C.BMP,stimuli/24M_NE_C.BMP,stimuli/EmptyFrame.bmp,stimuli/RedFrame.bmp,1,Neutral,Male,3,1,0,97,97,97,,,,,1,1,404.6655399999581,407.67820809967816,408.6685269996524,1.1282269000075758,,,sub006,002,2025_May_23_0903,HaririTask_Ver1,3.0.1,None,
Neutral,stimuli/11F_NE_C.BMP,stimuli/10F_NE_C.BMP,stimuli/11F_NE_C.BMP,stimuli/EmptyFrame.bmp,stimuli/RedFrame.bmp,2,Neutral,Female,3,1,0,98,98,98,,,,,2,1,408.69099269993603,411.69723769975826,412.68903969973326,0.8734911000356078,,,sub006,002,2025_May_23_0903,HaririTask_Ver1,3.0.1,None,
MatchFaces,stimuli/MatchFaces.bmp,stimuli/EmptyFace.bmp,stimuli/EmptyFace.bmp,stimuli/EmptyFrame.bmp,stimuli/EmptyFrame.bmp,Null,None,None,3,1,0,99,99,99,,,,,None,0,412.8864434999414,415.7030241996981,416.6972074001096,,,,sub006,002,2025_May_23_0903,HaririTask_Ver1,3.0.1,None,
Fear,stimuli/23M_FE_O.BMP,stimuli/23M_FE_O.BMP,stimuli/24M_FE_O.BMP,stimuli/EmptyFrame.bmp,stimuli/RedFrame.bmp,1,Fear,Male,3,1,0,100,100,100,,,,,1,1,416.7969848997891,419.7235984997824,420.7205916997045,1.1864591999910772,,,sub006,002,2025_May_23_0903,HaririTask_Ver1,3.0.1,None,
Fear,stimuli/19F_FE_O.BMP,stimuli/18F_FE_O.BMP,stimuli/19F_FE_O.BMP,stimuli/EmptyFrame.bmp,stimuli/RedFrame.bmp,2,Fear,Female,3,1,0,101,101,101,,,,,2,1,420.7453489000909,423.7492749998346,424.7485587997362,2.0369243999011815,,,sub006,002,2025_May_23_0903,HaririTask_Ver1,3.0.1,None,
Fear,stimuli/17F_FE_O.BMP,stimuli/17F_FE_O.BMP,stimuli/16F_FE_O.BMP,stimuli/EmptyFrame.bmp,stimuli/RedFrame.bmp,1,Fear,Female,3,1,0,102,102,102,,,,,1,1,424.7786284000613,427.7823927998543,428.7787484000437,0.8154827998951077,,,sub006,002,2025_May_23_0903,HaririTask_Ver1,3.0.1,None,
Fear,stimuli/15F_FE_O.BMP,stimuli/18F_FE_O.BMP,stimuli/15F_FE_O.BMP,stimuli/EmptyFrame.bmp,stimuli/RedFrame.bmp,2,Fear,Female,3,1,0,103,103,103,,,,,2,1,428.804398200009,431.8162916000001,432.80181409977376,0.9650380001403391,,,sub006,002,2025_May_23_0903,HaririTask_Ver1,3.0.1,None,
Fear,stimuli/21M_FE_O.BMP,stimuli/21M_FE_O.BMP,stimuli/22M_FE_O.BMP,stimuli/EmptyFrame.bmp,stimuli/RedFrame.bmp,1,Fear,Male,3,1,0,104,104,104,,,,,1,1,432.8287339997478,435.82634590007365,436.82226229971275,1.0627963999286294,,,sub006,002,2025_May_23_0903,HaririTask_Ver1,3.0.1,None,
Fear,stimuli/29M_FE_O.BMP,stimuli/30M_FE_O.BMP,stimuli/29M_FE_O.BMP,stimuli/EmptyFrame.bmp,stimuli/RedFrame.bmp,2,Fear,Male,3,1,0,105,105,105,,,,,2,1,436.8467875998467,439.8501626998186,440.83499499969184,0.9644671999849379,,,sub006,002,2025_May_23_0903,HaririTask_Ver1,3.0.1,None,
Fear,stimuli/31M_FE_O.BMP,stimuli/31M_FE_O.BMP,stimuli/38M_FE_O.BMP,stimuli/EmptyFrame.bmp,stimuli/RedFrame.bmp,1,Fear,Male,3,1,0,106,106,106,,,,,1,1,440.86074039991945,443.8651688997634,444.84686229983345,1.0530866999179125,,,sub006,002,2025_May_23_0903,HaririTask_Ver1,3.0.1,None,
Fear,stimuli/09F_FE_O.BMP,stimuli/07F_FE_O.BMP,stimuli/09F_FE_O.BMP,stimuli/EmptyFrame.bmp,stimuli/RedFrame.bmp,2,Fear,Female,3,1,0,107,107,107,,,,,2,1,444.87397069996223,447.8765497999266,448.86360159981996,0.8934003999456763,,,sub006,002,2025_May_23_0903,HaririTask_Ver1,3.0.1,None,
Fear,stimuli/11F_FE_O.BMP,stimuli/12F_FE_O.BMP,stimuli/11F_FE_O.BMP,stimuli/EmptyFrame.bmp,stimuli/RedFrame.bmp,2,Fear,Female,3,1,0,108,108,108,,,,,2,1,448.8862014999613,451.8974411999807,452.8816928998567,0.8931990000419319,,,sub006,002,2025_May_23_0903,HaririTask_Ver1,3.0.1,None,
Fear,stimuli/34M_FE_O.BMP,stimuli/34M_FE_O.BMP,stimuli/33M_FE_O.BMP,stimuli/EmptyFrame.bmp,stimuli/RedFrame.bmp,1,Fear,Male,3,1,0,109,109,109,,,,,1,1,452.9047515997663,455.9075921997428,456.892545199953,2.2750563002191484,,,sub006,002,2025_May_23_0903,HaririTask_Ver1,3.0.1,None,
,,,,,,,,,,,,,,,,,,,,,,,,,456.9189316998236,471.89671779982746,,,,,,,
