TrialType,Top,Left,Right,EmptyFrame,SelectedFrame,Correct,Emotion,Gender,TrialLength,FixationLength,n,GCFaceStartTime_mean,GCFaceStartTime_raw,GCFaceStartTime_std,GCPostFaceFixationEndTime_mean,GCPostFaceFixationEndTime_raw,GCPostFaceFixationEndTime_std,GCPostFaceFixationStartTime_mean,GCPostFaceFixationStartTime_raw,GCPostFaceFixationStartTime_std,key_resp_trial.corr_mean,key_resp_trial.corr_raw,key_resp_trial.corr_std,key_resp_trial.keys_raw,key_resp_trial.rt_mean,key_resp_trial.rt_raw,key_resp_trial.rt_std,order
MatchFaces,stimuli/MatchFaces.bmp,stimuli/EmptyFace.bmp,stimuli/EmptyFace.bmp,stimuli/EmptyFrame.bmp,stimuli/EmptyFrame.bmp,Null,None,None,3,1,1.0,15.337164878845215,15.337164878845215,0.0,19.046804428100586,19.046804428100586,0.0,18.059764862060547,18.059764862060547,0.0,0.0,0.0,0.0,,,,,0.0
Anger,stimuli/01F_AN_O.bmp,stimuli/19F_AN_O.BMP,stimuli/01F_AN_O.bmp,stimuli/EmptyFrame.bmp,stimuli/RedFrame.bmp,2,Anger,Female,3,1,1.0,19.234983444213867,19.234983444213867,0.0,23.068069458007812,23.068069458007812,0.0,22.08206558227539,22.08206558227539,0.0,1.0,1.0,0.0,'2',0.6856796145439148,0.6856796145439148,0.0,1.0
Anger,stimuli/02f_an_o.bmp,stimuli/18F_AN_O.BMP,stimuli/02f_an_o.bmp,stimuli/EmptyFrame.bmp,stimuli/RedFrame.bmp,2,Anger,Female,3,1,1.0,23.090557098388672,23.090557098388672,0.0,27.10594367980957,27.10594367980957,0.0,26.102561950683594,26.102561950683594,0.0,1.0,1.0,0.0,'2',0.7371494174003601,0.7371494174003601,0.0,2.0
Anger,stimuli/20M_AN_O.BMP,stimuli/34M_AN_O.BMP,stimuli/20M_AN_O.BMP,stimuli/EmptyFrame.bmp,stimuli/RedFrame.bmp,2,Anger,Male,3,1,1.0,27.144161224365234,27.144161224365234,0.0,31.11925506591797,31.11925506591797,0.0,30.136455535888672,30.136455535888672,0.0,1.0,1.0,0.0,'2',0.8846670985221863,0.8846670985221863,0.0,3.0
Anger,stimuli/03F_AN_O.bmp,stimuli/03F_AN_O.bmp,stimuli/17F_AN_O.BMP,stimuli/EmptyFrame.bmp,stimuli/RedFrame.bmp,1,Anger,Female,3,1,1.0,31.149904251098633,31.149904251098633,0.0,35.132511138916016,35.132511138916016,0.0,34.15394973754883,34.15394973754883,0.0,1.0,1.0,0.0,'1',0.9021739959716797,0.9021739959716797,0.0,4.0
Anger,stimuli/21M_AN_O.BMP,stimuli/21M_AN_O.BMP,stimuli/33M_AN_O.BMP,stimuli/EmptyFrame.bmp,stimuli/RedFrame.bmp,1,Anger,Male,3,1,1.0,35.162330627441406,35.162330627441406,0.0,39.147769927978516,39.147769927978516,0.0,38.157920837402344,38.157920837402344,0.0,1.0,1.0,0.0,'1',0.8297821879386902,0.8297821879386902,0.0,5.0
Anger,stimuli/22M_AN_O.BMP,stimuli/32M_AN_O.BMP,stimuli/22M_AN_O.BMP,stimuli/EmptyFrame.bmp,stimuli/RedFrame.bmp,2,Anger,Male,3,1,1.0,39.20425796508789,39.20425796508789,0.0,43.164794921875,43.164794921875,0.0,42.180442810058594,42.180442810058594,0.0,1.0,1.0,0.0,'2',1.5570783615112305,1.5570783615112305,0.0,6.0
Anger,stimuli/23M_AN_O.BMP,stimuli/23M_AN_O.BMP,stimuli/31M_AN_O.BMP,stimuli/EmptyFrame.bmp,stimuli/RedFrame.bmp,1,Anger,Male,3,1,1.0,43.189876556396484,43.189876556396484,0.0,47.1770133972168,47.1770133972168,0.0,46.19708251953125,46.19708251953125,0.0,1.0,1.0,0.0,'1',0.909648597240448,0.909648597240448,0.0,7.0
Anger,stimuli/05F_AN_O.bmp,stimuli/05F_AN_O.bmp,stimuli/16F_AN_O.BMP,stimuli/EmptyFrame.bmp,stimuli/RedFrame.bmp,1,Anger,Female,3,1,1.0,47.207008361816406,47.207008361816406,0.0,51.18965148925781,51.18965148925781,0.0,50.200767517089844,50.200767517089844,0.0,1.0,1.0,0.0,'1',0.8197209239006042,0.8197209239006042,0.0,8.0
Anger,stimuli/06F_AN_O.bmp,stimuli/15F_AN_O.BMP,stimuli/06F_AN_O.bmp,stimuli/EmptyFrame.bmp,stimuli/RedFrame.bmp,2,Anger,Female,3,1,1.0,51.220916748046875,51.220916748046875,0.0,55.20265579223633,55.20265579223633,0.0,54.21905517578125,54.21905517578125,0.0,1.0,1.0,0.0,'2',0.8708478808403015,0.8708478808403015,0.0,9.0
Anger,stimuli/24M_AN_O.BMP,stimuli/24M_AN_O.BMP,stimuli/30M_AN_O.BMP,stimuli/EmptyFrame.bmp,stimuli/RedFrame.bmp,1,Anger,Male,3,1,1.0,55.266483306884766,55.266483306884766,0.0,59.21421813964844,59.21421813964844,0.0,58.229671478271484,58.229671478271484,0.0,1.0,1.0,0.0,'1',1.0164330005645752,1.0164330005645752,0.0,10.0
MatchShape,stimuli/MatchShapes.bmp,stimuli/EmptyFace.bmp,stimuli/EmptyFace.bmp,stimuli/EmptyFrame.bmp,stimuli/EmptyFrame.bmp,Null,None,None,3,1,1.0,59.24424362182617,59.24424362182617,0.0,63.218807220458984,63.218807220458984,0.0,62.22483825683594,62.22483825683594,0.0,0.0,0.0,0.0,,,,,11.0
Shape,stimuli/horizontal.bmp,stimuli/horizontal.bmp,stimuli/circle.bmp,stimuli/EmptyFrame.bmp,stimuli/RedFrame.bmp,1,Shape,None,3,1,1.0,63.25263214111328,63.25263214111328,0.0,67.23616790771484,67.23616790771484,0.0,66.24193572998047,66.24193572998047,0.0,1.0,1.0,0.0,'1',0.8199788928031921,0.8199788928031921,0.0,12.0
Shape,stimuli/vertical.bmp,stimuli/horizontal.bmp,stimuli/vertical.bmp,stimuli/EmptyFrame.bmp,stimuli/RedFrame.bmp,2,Shape,None,3,1,1.0,67.26228332519531,67.26228332519531,0.0,71.24803161621094,71.24803161621094,0.0,70.26335906982422,70.26335906982422,0.0,1.0,1.0,0.0,'2',0.7972208857536316,0.7972208857536316,0.0,13.0
Shape,stimuli/horizontal.bmp,stimuli/horizontal.bmp,stimuli/vertical.bmp,stimuli/EmptyFrame.bmp,stimuli/RedFrame.bmp,1,Shape,None,3,1,1.0,71.27107238769531,71.27107238769531,0.0,75.26960754394531,75.26960754394531,0.0,74.28533172607422,74.28533172607422,0.0,1.0,1.0,0.0,'1',0.8240938186645508,0.8240938186645508,0.0,14.0
Shape,stimuli/horizontal.bmp,stimuli/circle.bmp,stimuli/horizontal.bmp,stimuli/EmptyFrame.bmp,stimuli/RedFrame.bmp,2,Shape,None,3,1,1.0,75.29149627685547,75.29149627685547,0.0,79.28955078125,79.28955078125,0.0,78.30693817138672,78.30693817138672,0.0,1.0,1.0,0.0,'2',0.7232087254524231,0.7232087254524231,0.0,15.0
Shape,stimuli/circle.bmp,stimuli/circle.bmp,stimuli/vertical.bmp,stimuli/EmptyFrame.bmp,stimuli/RedFrame.bmp,1,Shape,None,3,1,1.0,79.3105239868164,79.3105239868164,0.0,83.29801940917969,83.29801940917969,0.0,82.32041931152344,82.32041931152344,0.0,1.0,1.0,0.0,'1',0.8040462136268616,0.8040462136268616,0.0,16.0
Shape,stimuli/circle.bmp,stimuli/circle.bmp,stimuli/horizontal.bmp,stimuli/EmptyFrame.bmp,stimuli/RedFrame.bmp,1,Shape,None,3,1,1.0,83.32085418701172,83.32085418701172,0.0,87.31402587890625,87.31402587890625,0.0,86.32477569580078,86.32477569580078,0.0,1.0,1.0,0.0,'1',0.7575685977935791,0.7575685977935791,0.0,17.0
Shape,stimuli/vertical.bmp,stimuli/circle.bmp,stimuli/vertical.bmp,stimuli/EmptyFrame.bmp,stimuli/RedFrame.bmp,2,Shape,None,3,1,1.0,87.33553314208984,87.33553314208984,0.0,91.33162689208984,91.33162689208984,0.0,90.34246063232422,90.34246063232422,0.0,1.0,1.0,0.0,'2',0.7541223764419556,0.7541223764419556,0.0,18.0
Shape,stimuli/circle.bmp,stimuli/vertical.bmp,stimuli/circle.bmp,stimuli/EmptyFrame.bmp,stimuli/RedFrame.bmp,2,Shape,None,3,1,1.0,91.35648345947266,91.35648345947266,0.0,95.3508529663086,95.3508529663086,0.0,94.36481475830078,94.36481475830078,0.0,1.0,1.0,0.0,'2',0.7879683971405029,0.7879683971405029,0.0,19.0
Shape,stimuli/vertical.bmp,stimuli/horizontal.bmp,stimuli/vertical.bmp,stimuli/EmptyFrame.bmp,stimuli/RedFrame.bmp,2,Shape,None,3,1,1.0,95.37136840820312,95.37136840820312,0.0,99.36302185058594,99.36302185058594,0.0,98.38362121582031,98.38362121582031,0.0,1.0,1.0,0.0,'2',0.8198295831680298,0.8198295831680298,0.0,20.0
Shape,stimuli/vertical.bmp,stimuli/vertical.bmp,stimuli/circle.bmp,stimuli/EmptyFrame.bmp,stimuli/RedFrame.bmp,1,Shape,None,3,1,1.0,99.38621520996094,99.38621520996094,0.0,103.38028717041016,103.38028717041016,0.0,102.39646911621094,102.39646911621094,0.0,1.0,1.0,0.0,'1',0.8177990913391113,0.8177990913391113,0.0,21.0
MatchFaces,stimuli/MatchFaces.bmp,stimuli/EmptyFace.bmp,stimuli/EmptyFace.bmp,stimuli/EmptyFrame.bmp,stimuli/EmptyFrame.bmp,Null,None,None,3,1,1.0,103.60075378417969,103.60075378417969,0.0,107.39218139648438,107.39218139648438,0.0,106.39421844482422,106.39421844482422,0.0,0.0,0.0,0.0,,,,,22.0
Neutral,stimuli/20M_NE_C.BMP,stimuli/21M_NE_C.BMP,stimuli/20M_NE_C.BMP,stimuli/EmptyFrame.bmp,stimuli/RedFrame.bmp,2,Neutral,Male,3,1,1.0,107.5125732421875,107.5125732421875,0.0,111.41475677490234,111.41475677490234,0.0,110.42708587646484,110.42708587646484,0.0,1.0,1.0,0.0,'2',1.047633409500122,1.047633409500122,0.0,23.0
Neutral,stimuli/01F_NE_C.bmp,stimuli/01F_NE_C.bmp,stimuli/02F_NE_C.bmp,stimuli/EmptyFrame.bmp,stimuli/RedFrame.bmp,1,Neutral,Female,3,1,1.0,111.44776153564453,111.44776153564453,0.0,115.43180084228516,115.43180084228516,0.0,114.44098663330078,114.44098663330078,0.0,1.0,1.0,0.0,'1',0.7971643209457397,0.7971643209457397,0.0,24.0
Neutral,stimuli/22M_NE_C.BMP,stimuli/23M_NE_C.BMP,stimuli/22M_NE_C.BMP,stimuli/EmptyFrame.bmp,stimuli/RedFrame.bmp,2,Neutral,Male,3,1,1.0,115.46072387695312,115.46072387695312,0.0,119.44670867919922,119.44670867919922,0.0,118.4602279663086,118.4602279663086,0.0,1.0,1.0,0.0,'2',0.8673713803291321,0.8673713803291321,0.0,25.0
Neutral,stimuli/24M_NE_C.BMP,stimuli/24M_NE_C.BMP,stimuli/25M_NE_C.BMP,stimuli/EmptyFrame.bmp,stimuli/RedFrame.bmp,1,Neutral,Male,3,1,1.0,119.47520446777344,119.47520446777344,0.0,123.46072387695312,123.46072387695312,0.0,122.48004913330078,122.48004913330078,0.0,1.0,1.0,0.0,'1',1.0923916101455688,1.0923916101455688,0.0,26.0
Neutral,stimuli/03F_NE_C.bmp,stimuli/05F_NE_C.bmp,stimuli/03F_NE_C.bmp,stimuli/EmptyFrame.bmp,stimuli/RedFrame.bmp,2,Neutral,Female,3,1,1.0,123.48365783691406,123.48365783691406,0.0,127.47664642333984,127.47664642333984,0.0,126.49253845214844,126.49253845214844,0.0,1.0,1.0,0.0,'2',1.2627042531967163,1.2627042531967163,0.0,27.0
Neutral,stimuli/26M_NE_C.BMP,stimuli/26M_NE_C.BMP,stimuli/27M_NE_C.BMP,stimuli/EmptyFrame.bmp,stimuli/RedFrame.bmp,1,Neutral,Male,3,1,1.0,127.50202178955078,127.50202178955078,0.0,131.4980926513672,131.4980926513672,0.0,130.50038146972656,130.50038146972656,0.0,1.0,1.0,0.0,'1',0.8938611149787903,0.8938611149787903,0.0,28.0
Neutral,stimuli/06F_NE_C.bmp,stimuli/07F_NE_C.BMP,stimuli/06F_NE_C.bmp,stimuli/EmptyFrame.bmp,stimuli/RedFrame.bmp,2,Neutral,Female,3,1,1.0,131.52432250976562,131.52432250976562,0.0,135.51553344726562,135.51553344726562,0.0,134.52647399902344,134.52647399902344,0.0,1.0,1.0,0.0,'2',0.9075413942337036,0.9075413942337036,0.0,29.0
Neutral,stimuli/08F_NE_C.BMP,stimuli/08F_NE_C.BMP,stimuli/09F_NE_C.BMP,stimuli/EmptyFrame.bmp,stimuli/RedFrame.bmp,1,Neutral,Female,3,1,1.0,135.54318237304688,135.54318237304688,0.0,139.5401611328125,139.5401611328125,0.0,138.55186462402344,138.55186462402344,0.0,1.0,1.0,0.0,'1',0.9174144864082336,0.9174144864082336,0.0,30.0
Neutral,stimuli/28M_NE_C.BMP,stimuli/29M_NE_C.BMP,stimuli/28M_NE_C.BMP,stimuli/EmptyFrame.bmp,stimuli/RedFrame.bmp,2,Neutral,Male,3,1,1.0,139.5717010498047,139.5717010498047,0.0,143.55776977539062,143.55776977539062,0.0,142.5701141357422,142.5701141357422,0.0,1.0,1.0,0.0,'2',0.9100680947303772,0.9100680947303772,0.0,31.0
Neutral,stimuli/10F_NE_C.BMP,stimuli/10F_NE_C.BMP,stimuli/06F_NE_C.bmp,stimuli/EmptyFrame.bmp,stimuli/RedFrame.bmp,1,Neutral,Female,3,1,1.0,143.58612060546875,143.58612060546875,0.0,147.56985473632812,147.56985473632812,0.0,146.58456420898438,146.58456420898438,0.0,1.0,1.0,0.0,'1',0.7840539216995239,0.7840539216995239,0.0,32.0
MatchFaces,stimuli/MatchFaces.bmp,stimuli/EmptyFace.bmp,stimuli/EmptyFace.bmp,stimuli/EmptyFrame.bmp,stimuli/EmptyFrame.bmp,Null,None,None,3,1,1.0,147.76527404785156,147.76527404785156,0.0,151.579833984375,151.579833984375,0.0,150.5802459716797,150.5802459716797,0.0,0.0,0.0,0.0,,,,,33.0
Fear,stimuli/07F_FE_O.BMP,stimuli/07F_FE_O.BMP,stimuli/14F_FE_O.BMP,stimuli/EmptyFrame.bmp,stimuli/RedFrame.bmp,1,Fear,Female,3,1,1.0,151.6565704345703,151.6565704345703,0.0,155.5915985107422,155.5915985107422,0.0,154.608154296875,154.608154296875,0.0,1.0,1.0,0.0,'1',0.9470478296279907,0.9470478296279907,0.0,34.0
Fear,stimuli/25M_FE_O.BMP,stimuli/29M_FE_O.BMP,stimuli/25M_FE_O.BMP,stimuli/EmptyFrame.bmp,stimuli/RedFrame.bmp,2,Fear,Male,3,1,1.0,155.6197509765625,155.6197509765625,0.0,159.61160278320312,159.61160278320312,0.0,158.627685546875,158.627685546875,0.0,1.0,1.0,0.0,'2',0.9007390737533569,0.9007390737533569,0.0,35.0
Fear,stimuli/26M_FE_O.BMP,stimuli/26M_FE_O.BMP,stimuli/28M_FE_O.BMP,stimuli/EmptyFrame.bmp,stimuli/RedFrame.bmp,1,Fear,Male,3,1,1.0,159.64395141601562,159.64395141601562,0.0,163.63026428222656,163.63026428222656,0.0,162.63308715820312,162.63308715820312,0.0,1.0,1.0,0.0,'1',1.0284968614578247,1.0284968614578247,0.0,36.0
Fear,stimuli/08F_FE_O.BMP,stimuli/13F_FE_O.BMP,stimuli/08F_FE_O.BMP,stimuli/EmptyFrame.bmp,stimuli/RedFrame.bmp,2,Fear,Female,3,1,1.0,163.6588134765625,163.6588134765625,0.0,167.64239501953125,167.64239501953125,0.0,166.6548309326172,166.6548309326172,0.0,1.0,1.0,0.0,'2',1.0981303453445435,1.0981303453445435,0.0,37.0
Fear,stimuli/09F_FE_O.BMP,stimuli/09F_FE_O.BMP,stimuli/12F_FE_O.BMP,stimuli/EmptyFrame.bmp,stimuli/RedFrame.bmp,1,Fear,Female,3,1,1.0,167.6715087890625,167.6715087890625,0.0,171.65695190429688,171.65695190429688,0.0,170.6750030517578,170.6750030517578,0.0,1.0,1.0,0.0,'1',0.8730310201644897,0.8730310201644897,0.0,38.0
Fear,stimuli/27M_FE_O.BMP,stimuli/26M_FE_O.BMP,stimuli/27M_FE_O.BMP,stimuli/EmptyFrame.bmp,stimuli/RedFrame.bmp,2,Fear,Male,3,1,1.0,171.682861328125,171.682861328125,0.0,175.67588806152344,175.67588806152344,0.0,174.6868438720703,174.6868438720703,0.0,1.0,1.0,0.0,'2',0.7767192125320435,0.7767192125320435,0.0,39.0
Fear,stimuli/28M_FE_O.BMP,stimuli/28M_FE_O.BMP,stimuli/25M_FE_O.BMP,stimuli/EmptyFrame.bmp,stimuli/RedFrame.bmp,1,Fear,Male,3,1,1.0,175.69361877441406,175.69361877441406,0.0,179.7059326171875,179.7059326171875,0.0,178.70416259765625,178.70416259765625,0.0,1.0,1.0,0.0,'1',1.0844165086746216,1.0844165086746216,0.0,40.0
Fear,stimuli/10F_FE_O.BMP,stimuli/11F_FE_O.BMP,stimuli/10F_FE_O.BMP,stimuli/EmptyFrame.bmp,stimuli/RedFrame.bmp,2,Fear,Female,3,1,1.0,179.7348175048828,179.7348175048828,0.0,183.72576904296875,183.72576904296875,0.0,182.7281951904297,182.7281951904297,0.0,1.0,1.0,0.0,'2',0.7895780801773071,0.7895780801773071,0.0,41.0
Fear,stimuli/29M_FE_O.BMP,stimuli/29M_FE_O.BMP,stimuli/24M_FE_O.BMP,stimuli/EmptyFrame.bmp,stimuli/RedFrame.bmp,1,Fear,Male,3,1,1.0,183.75619506835938,183.75619506835938,0.0,187.73731994628906,187.73731994628906,0.0,186.76126098632812,186.76126098632812,0.0,1.0,1.0,0.0,'1',0.835434079170227,0.835434079170227,0.0,42.0
Fear,stimuli/11F_FE_O.BMP,stimuli/10F_FE_O.BMP,stimuli/11F_FE_O.BMP,stimuli/EmptyFrame.bmp,stimuli/RedFrame.bmp,2,Fear,Female,3,1,1.0,187.76927185058594,187.76927185058594,0.0,191.75596618652344,191.75596618652344,0.0,190.76414489746094,190.76414489746094,0.0,1.0,1.0,0.0,'2',0.7915284037590027,0.7915284037590027,0.0,43.0
MatchFaces,stimuli/MatchFaces.bmp,stimuli/EmptyFace.bmp,stimuli/EmptyFace.bmp,stimuli/EmptyFrame.bmp,stimuli/EmptyFrame.bmp,Null,None,None,3,1,1.0,191.92103576660156,191.92103576660156,0.0,195.7604522705078,195.7604522705078,0.0,194.76527404785156,194.76527404785156,0.0,0.0,0.0,0.0,,,,,44.0
Happy,stimuli/19F_HA_O.BMP,stimuli/19F_HA_O.BMP,stimuli/18F_HA_O.BMP,stimuli/EmptyFrame.bmp,stimuli/RedFrame.bmp,1,Happy,Female,3,1,1.0,195.8241424560547,195.8241424560547,0.0,199.77828979492188,199.77828979492188,0.0,198.7880859375,198.7880859375,0.0,1.0,1.0,0.0,'1',0.8038201928138733,0.8038201928138733,0.0,45.0
Happy,stimuli/17F_HA_O.BMP,stimuli/16F_HA_O.BMP,stimuli/17F_HA_O.BMP,stimuli/EmptyFrame.bmp,stimuli/RedFrame.bmp,2,Happy,Female,3,1,1.0,199.813232421875,199.813232421875,0.0,203.79373168945312,203.79373168945312,0.0,202.81227111816406,202.81227111816406,0.0,1.0,1.0,0.0,'2',1.8319120407104492,1.8319120407104492,0.0,46.0
Happy,stimuli/43M_HA_O.BMP,stimuli/42M_HA_O.BMP,stimuli/43M_HA_O.BMP,stimuli/EmptyFrame.bmp,stimuli/RedFrame.bmp,2,Happy,Male,3,1,1.0,203.82162475585938,203.82162475585938,0.0,207.816650390625,207.816650390625,0.0,206.8362579345703,206.8362579345703,0.0,1.0,1.0,0.0,'2',0.8623868227005005,0.8623868227005005,0.0,47.0
Happy,stimuli/41M_HA_O.BMP,stimuli/41M_HA_O.BMP,stimuli/40M_HA_O.BMP,stimuli/EmptyFrame.bmp,stimuli/RedFrame.bmp,1,Happy,Male,3,1,1.0,207.84585571289062,207.84585571289062,0.0,211.82957458496094,211.82957458496094,0.0,210.85072326660156,210.85072326660156,0.0,1.0,1.0,0.0,'1',0.9479920268058777,0.9479920268058777,0.0,48.0
Happy,stimuli/15F_HA_O.BMP,stimuli/15F_HA_O.BMP,stimuli/14F_HA_O.BMP,stimuli/EmptyFrame.bmp,stimuli/RedFrame.bmp,1,Happy,Female,3,1,1.0,211.85389709472656,211.85389709472656,0.0,215.8402557373047,215.8402557373047,0.0,214.85211181640625,214.85211181640625,0.0,1.0,1.0,0.0,'1',1.5645943880081177,1.5645943880081177,0.0,49.0
Happy,stimuli/13F_HA_O.BMP,stimuli/13F_HA_O.BMP,stimuli/12F_HA_O.BMP,stimuli/EmptyFrame.bmp,stimuli/RedFrame.bmp,1,Happy,Female,3,1,1.0,215.86367797851562,215.86367797851562,0.0,219.85174560546875,219.85174560546875,0.0,218.87205505371094,218.87205505371094,0.0,1.0,1.0,0.0,'1',0.8661314845085144,0.8661314845085144,0.0,50.0
Happy,stimuli/39M_HA_O.BMP,stimuli/38M_HA_O.BMP,stimuli/39M_HA_O.BMP,stimuli/EmptyFrame.bmp,stimuli/RedFrame.bmp,2,Happy,Male,3,1,1.0,219.91151428222656,219.91151428222656,0.0,223.86924743652344,223.86924743652344,0.0,222.8817596435547,222.8817596435547,0.0,1.0,1.0,0.0,'2',0.8665040731430054,0.8665040731430054,0.0,51.0
Happy,stimuli/37M_HA_O.BMP,stimuli/37M_HA_O.BMP,stimuli/36M_HA_O.BMP,stimuli/EmptyFrame.bmp,stimuli/RedFrame.bmp,1,Happy,Male,3,1,1.0,223.8942108154297,223.8942108154297,0.0,227.8910675048828,227.8910675048828,0.0,226.90966796875,226.90966796875,0.0,1.0,1.0,0.0,'1',0.7854012846946716,0.7854012846946716,0.0,52.0
Happy,stimuli/35M_HA_O.BMP,stimuli/34M_HA_O.BMP,stimuli/35M_HA_O.BMP,stimuli/EmptyFrame.bmp,stimuli/RedFrame.bmp,2,Happy,Male,3,1,1.0,227.91770935058594,227.91770935058594,0.0,231.9141845703125,231.9141845703125,0.0,230.91854858398438,230.91854858398438,0.0,1.0,1.0,0.0,'2',0.7912285923957825,0.7912285923957825,0.0,53.0
Happy,stimuli/11F_HA_O.BMP,stimuli/10F_HA_O.BMP,stimuli/11F_HA_O.BMP,stimuli/EmptyFrame.bmp,stimuli/RedFrame.bmp,2,Happy,Female,3,1,1.0,231.94512939453125,231.94512939453125,0.0,235.93145751953125,235.93145751953125,0.0,234.9412384033203,234.9412384033203,0.0,1.0,1.0,0.0,'2',0.9267787933349609,0.9267787933349609,0.0,54.0
Match Shape,stimuli/MatchShapes.bmp,stimuli/EmptyFace.bmp,stimuli/EmptyFace.bmp,stimuli/EmptyFrame.bmp,stimuli/EmptyFrame.bmp,Null,None,None,3,1,1.0,235.9554901123047,235.9554901123047,0.0,239.9431610107422,239.9431610107422,0.0,238.94944763183594,238.94944763183594,0.0,0.0,0.0,0.0,,,,,55.0
Shape,stimuli/circle.bmp,stimuli/vertical.bmp,stimuli/circle.bmp,stimuli/EmptyFrame.bmp,stimuli/RedFrame.bmp,2,Shape,None,3,1,1.0,239.9740447998047,239.9740447998047,0.0,243.9622039794922,243.9622039794922,0.0,242.97128295898438,242.97128295898438,0.0,1.0,1.0,0.0,'2',0.66791170835495,0.66791170835495,0.0,56.0
Shape,stimuli/horizontal.bmp,stimuli/circle.bmp,stimuli/horizontal.bmp,stimuli/EmptyFrame.bmp,stimuli/RedFrame.bmp,2,Shape,None,3,1,1.0,243.9827880859375,243.9827880859375,0.0,247.9780731201172,247.9780731201172,0.0,246.9910888671875,246.9910888671875,0.0,1.0,1.0,0.0,'2',0.7299888730049133,0.7299888730049133,0.0,57.0
Shape,stimuli/vertical.bmp,stimuli/vertical.bmp,stimuli/horizontal.bmp,stimuli/EmptyFrame.bmp,stimuli/RedFrame.bmp,1,Shape,None,3,1,1.0,248.00390625,248.00390625,0.0,251.9866943359375,251.9866943359375,0.0,251.00546264648438,251.00546264648438,0.0,1.0,1.0,0.0,'1',0.8078460097312927,0.8078460097312927,0.0,58.0
Shape,stimuli/horizontal.bmp,stimuli/circle.bmp,stimuli/horizontal.bmp,stimuli/EmptyFrame.bmp,stimuli/RedFrame.bmp,2,Shape,None,3,1,1.0,252.00796508789062,252.00796508789062,0.0,256.0068359375,256.0068359375,0.0,255.01576232910156,255.01576232910156,0.0,1.0,1.0,0.0,'2',0.6317424774169922,0.6317424774169922,0.0,59.0
Shape,stimuli/horizontal.bmp,stimuli/horizontal.bmp,stimuli/vertical.bmp,stimuli/EmptyFrame.bmp,stimuli/RedFrame.bmp,1,Shape,None,3,1,1.0,256.0298767089844,256.0298767089844,0.0,260.0164794921875,260.0164794921875,0.0,259.036376953125,259.036376953125,0.0,1.0,1.0,0.0,'1',0.7635486721992493,0.7635486721992493,0.0,60.0
Shape,stimuli/vertical.bmp,stimuli/vertical.bmp,stimuli/circle.bmp,stimuli/EmptyFrame.bmp,stimuli/RedFrame.bmp,1,Shape,None,3,1,1.0,260.0387878417969,260.0387878417969,0.0,264.0381774902344,264.0381774902344,0.0,263.0455322265625,263.0455322265625,0.0,1.0,1.0,0.0,'1',0.5999153256416321,0.5999153256416321,0.0,61.0
Shape,stimuli/circle.bmp,stimuli/horizontal.bmp,stimuli/circle.bmp,stimuli/EmptyFrame.bmp,stimuli/RedFrame.bmp,2,Shape,None,3,1,1.0,264.0593566894531,264.0593566894531,0.0,268.05584716796875,268.05584716796875,0.0,267.0614013671875,267.0614013671875,0.0,1.0,1.0,0.0,'2',0.8038043975830078,0.8038043975830078,0.0,62.0
Shape,stimuli/circle.bmp,stimuli/vertical.bmp,stimuli/circle.bmp,stimuli/EmptyFrame.bmp,stimuli/RedFrame.bmp,2,Shape,None,3,1,1.0,268.0785827636719,268.0785827636719,0.0,272.07427978515625,272.07427978515625,0.0,271.079833984375,271.079833984375,0.0,1.0,1.0,0.0,'2',0.753663182258606,0.753663182258606,0.0,63.0
Shape,stimuli/vertical.bmp,stimuli/vertical.bmp,stimuli/horizontal.bmp,stimuli/EmptyFrame.bmp,stimuli/RedFrame.bmp,1,Shape,None,3,1,1.0,272.0973205566406,272.0973205566406,0.0,276.0857238769531,276.0857238769531,0.0,275.0968017578125,275.0968017578125,0.0,1.0,1.0,0.0,'1',0.8443837761878967,0.8443837761878967,0.0,64.0
Shape,stimuli/horizontal.bmp,stimuli/horizontal.bmp,stimuli/circle.bmp,stimuli/EmptyFrame.bmp,stimuli/RedFrame.bmp,1,Shape,None,3,1,1.0,276.1087646484375,276.1087646484375,0.0,280.0992126464844,280.0992126464844,0.0,279.119873046875,279.119873046875,0.0,0.0,0.0,0.0,'2',0.7476930022239685,0.7476930022239685,0.0,65.0
MatchFaces,stimuli/MatchFaces.bmp,stimuli/EmptyFace.bmp,stimuli/EmptyFace.bmp,stimuli/EmptyFrame.bmp,stimuli/EmptyFrame.bmp,Null,None,None,3,1,1.0,280.2544250488281,280.2544250488281,0.0,284.10968017578125,284.10968017578125,0.0,283.1109924316406,283.1109924316406,0.0,0.0,0.0,0.0,,,,,66.0
Anger,stimuli/42M_AN_O.BMP,stimuli/42M_AN_O.BMP,stimuli/43M_AN_O.BMP,stimuli/EmptyFrame.bmp,stimuli/RedFrame.bmp,1,Anger,Male,3,1,1.0,284.1835021972656,284.1835021972656,0.0,288.1217346191406,288.1217346191406,0.0,287.137939453125,287.137939453125,0.0,1.0,1.0,0.0,'1',0.6831427216529846,0.6831427216529846,0.0,67.0
Anger,stimuli/07F_AN_O.BMP,stimuli/07F_AN_O.BMP,stimuli/14F_AN_O.BMP,stimuli/EmptyFrame.bmp,stimuli/RedFrame.bmp,1,Anger,Female,3,1,1.0,288.1488037109375,288.1488037109375,0.0,292.13922119140625,292.13922119140625,0.0,291.153564453125,291.153564453125,0.0,1.0,1.0,0.0,'1',0.7246087789535522,0.7246087789535522,0.0,68.0
Anger,stimuli/40M_AN_O.BMP,stimuli/41M_AN_O.BMP,stimuli/40M_AN_O.BMP,stimuli/EmptyFrame.bmp,stimuli/RedFrame.bmp,2,Anger,Male,3,1,1.0,292.1683349609375,292.1683349609375,0.0,296.1641540527344,296.1641540527344,0.0,295.1717529296875,295.1717529296875,0.0,1.0,1.0,0.0,'2',0.6770142912864685,0.6770142912864685,0.0,69.0
Anger,stimuli/38M_AN_O.BMP,stimuli/39M_AN_O.BMP,stimuli/38M_AN_O.BMP,stimuli/EmptyFrame.bmp,stimuli/RedFrame.bmp,2,Anger,Male,3,1,1.0,296.1919860839844,296.1919860839844,0.0,300.1786193847656,300.1786193847656,0.0,299.19537353515625,299.19537353515625,0.0,1.0,1.0,0.0,'2',0.8989468812942505,0.8989468812942505,0.0,70.0
Anger,stimuli/08F_AN_O.BMP,stimuli/08F_AN_O.BMP,stimuli/13F_AN_O.BMP,stimuli/EmptyFrame.bmp,stimuli/RedFrame.bmp,1,Anger,Female,3,1,1.0,300.20355224609375,300.20355224609375,0.0,304.195556640625,304.195556640625,0.0,303.2090148925781,303.2090148925781,0.0,1.0,1.0,0.0,'1',0.841204822063446,0.841204822063446,0.0,71.0
Anger,stimuli/36M_AN_O.BMP,stimuli/37M_AN_O.BMP,stimuli/36M_AN_O.BMP,stimuli/EmptyFrame.bmp,stimuli/RedFrame.bmp,2,Anger,Male,3,1,1.0,304.2210693359375,304.2210693359375,0.0,308.21441650390625,308.21441650390625,0.0,307.2410583496094,307.2410583496094,0.0,1.0,1.0,0.0,'2',0.8458347916603088,0.8458347916603088,0.0,72.0
Anger,stimuli/09F_AN_O.BMP,stimuli/12F_AN_O.BMP,stimuli/09F_AN_O.BMP,stimuli/EmptyFrame.bmp,stimuli/RedFrame.bmp,2,Anger,Female,3,1,1.0,308.2442626953125,308.2442626953125,0.0,312.2281799316406,312.2281799316406,0.0,311.2509765625,311.2509765625,0.0,1.0,1.0,0.0,'2',0.7447252869606018,0.7447252869606018,0.0,73.0
Anger,stimuli/34M_AN_O.BMP,stimuli/35M_AN_O.BMP,stimuli/34M_AN_O.BMP,stimuli/EmptyFrame.bmp,stimuli/RedFrame.bmp,2,Anger,Male,3,1,1.0,312.2543029785156,312.2543029785156,0.0,316.23956298828125,316.23956298828125,0.0,315.2521667480469,315.2521667480469,0.0,1.0,1.0,0.0,'2',0.6826192736625671,0.6826192736625671,0.0,74.0
Anger,stimuli/10F_AN_O.BMP,stimuli/10F_AN_O.BMP,stimuli/11F_AN_O.BMP,stimuli/EmptyFrame.bmp,stimuli/RedFrame.bmp,1,Anger,Female,3,1,1.0,316.2707824707031,316.2707824707031,0.0,320.2558288574219,320.2558288574219,0.0,319.26885986328125,319.26885986328125,0.0,1.0,1.0,0.0,'1',1.2754896879196167,1.2754896879196167,0.0,75.0
Anger,stimuli/12F_AN_O.BMP,stimuli/12F_AN_O.BMP,stimuli/13F_AN_O.BMP,stimuli/EmptyFrame.bmp,stimuli/RedFrame.bmp,1,Anger,Female,3,1,1.0,320.2778625488281,320.2778625488281,0.0,324.2726745605469,324.2726745605469,0.0,323.28143310546875,323.28143310546875,0.0,1.0,1.0,0.0,'1',0.8363285064697266,0.8363285064697266,0.0,76.0
MatchFaces,stimuli/MatchFaces.bmp,stimuli/EmptyFace.bmp,stimuli/EmptyFace.bmp,stimuli/EmptyFrame.bmp,stimuli/EmptyFrame.bmp,Null,None,None,3,1,1.0,324.50982666015625,324.50982666015625,0.0,328.2769775390625,328.2769775390625,0.0,327.2877502441406,327.2877502441406,0.0,0.0,0.0,0.0,,,,,77.0
Happy,stimuli/20M_HA_O.BMP,stimuli/21M_HA_O.BMP,stimuli/20M_HA_O.BMP,stimuli/EmptyFrame.bmp,stimuli/RedFrame.bmp,2,Happy,Male,3,1,1.0,328.34539794921875,328.34539794921875,0.0,332.29034423828125,332.29034423828125,0.0,331.3133239746094,331.3133239746094,0.0,1.0,1.0,0.0,'2',1.0316897630691528,1.0316897630691528,0.0,78.0
Happy,stimuli/01F_HA_O.bmp,stimuli/01F_HA_O.bmp,stimuli/02F_HA_O.bmp,stimuli/EmptyFrame.bmp,stimuli/RedFrame.bmp,1,Happy,Female,3,1,1.0,332.3218078613281,332.3218078613281,0.0,336.3003234863281,336.3003234863281,0.0,335.3132629394531,335.3132629394531,0.0,1.0,1.0,0.0,'1',0.7179843187332153,0.7179843187332153,0.0,79.0
Happy,stimuli/22M_HA_O.BMP,stimuli/23M_HA_O.BMP,stimuli/22M_HA_O.BMP,stimuli/EmptyFrame.bmp,stimuli/RedFrame.bmp,2,Happy,Male,3,1,1.0,336.3284606933594,336.3284606933594,0.0,340.31683349609375,340.31683349609375,0.0,339.3372802734375,339.3372802734375,0.0,0.0,0.0,0.0,'1',1.353524088859558,1.353524088859558,0.0,80.0
Happy,stimuli/24M_HA_O.BMP,stimuli/24M_HA_O.BMP,stimuli/25M_HA_O.BMP,stimuli/EmptyFrame.bmp,stimuli/RedFrame.bmp,1,Happy,Male,3,1,1.0,340.3426208496094,340.3426208496094,0.0,344.329345703125,344.329345703125,0.0,343.3614501953125,343.3614501953125,0.0,1.0,1.0,0.0,'1',1.4790393114089966,1.4790393114089966,0.0,81.0
Happy,stimuli/03F_HA_O.bmp,stimuli/05F_HA_O.bmp,stimuli/03F_HA_O.bmp,stimuli/EmptyFrame.bmp,stimuli/RedFrame.bmp,2,Happy,Female,3,1,1.0,344.3916320800781,344.3916320800781,0.0,348.3493347167969,348.3493347167969,0.0,347.3614196777344,347.3614196777344,0.0,1.0,1.0,0.0,'2',1.3210455179214478,1.3210455179214478,0.0,82.0
Happy,stimuli/26M_HA_O.BMP,stimuli/26M_HA_O.BMP,stimuli/27M_HA_O.BMP,stimuli/EmptyFrame.bmp,stimuli/RedFrame.bmp,1,Happy,Male,3,1,1.0,348.4168701171875,348.4168701171875,0.0,352.3707580566406,352.3707580566406,0.0,351.3752746582031,351.3752746582031,0.0,1.0,1.0,0.0,'1',0.9451934099197388,0.9451934099197388,0.0,83.0
Happy,stimuli/06F_HA_O.bmp,stimuli/07F_HA_O.BMP,stimuli/06F_HA_O.bmp,stimuli/EmptyFrame.bmp,stimuli/RedFrame.bmp,2,Happy,Female,3,1,1.0,352.3957824707031,352.3957824707031,0.0,356.3829650878906,356.3829650878906,0.0,355.39410400390625,355.39410400390625,0.0,1.0,1.0,0.0,'2',0.9637730717658997,0.9637730717658997,0.0,84.0
Happy,stimuli/08F_HA_O.BMP,stimuli/08F_HA_O.BMP,stimuli/09F_HA_O.BMP,stimuli/EmptyFrame.bmp,stimuli/RedFrame.bmp,1,Happy,Female,3,1,1.0,356.410888671875,356.410888671875,0.0,360.3955993652344,360.3955993652344,0.0,359.41314697265625,359.41314697265625,0.0,1.0,1.0,0.0,'1',0.8265771865844727,0.8265771865844727,0.0,85.0
Happy,stimuli/28M_HA_O.BMP,stimuli/29M_HA_O.BMP,stimuli/28M_HA_O.BMP,stimuli/EmptyFrame.bmp,stimuli/RedFrame.bmp,2,Happy,Male,3,1,1.0,360.42730712890625,360.42730712890625,0.0,364.4119873046875,364.4119873046875,0.0,363.43115234375,363.43115234375,0.0,1.0,1.0,0.0,'2',1.2096542119979858,1.2096542119979858,0.0,86.0
Happy,stimuli/10F_HA_O.BMP,stimuli/10F_HA_O.BMP,stimuli/06F_HA_O.bmp,stimuli/EmptyFrame.bmp,stimuli/RedFrame.bmp,1,Happy,Female,3,1,1.0,364.4342956542969,364.4342956542969,0.0,368.4345397949219,368.4345397949219,0.0,367.4493713378906,367.4493713378906,0.0,1.0,1.0,0.0,'1',0.7901821136474609,0.7901821136474609,0.0,87.0
MatchFaces,stimuli/MatchFaces.bmp,stimuli/EmptyFace.bmp,stimuli/EmptyFace.bmp,stimuli/EmptyFrame.bmp,stimuli/EmptyFrame.bmp,Null,None,None,3,1,1.0,368.6453857421875,368.6453857421875,0.0,372.44049072265625,372.44049072265625,0.0,371.4478454589844,371.4478454589844,0.0,0.0,0.0,0.0,,,,,88.0
Neutral,stimuli/07F_NE_C.BMP,stimuli/07F_NE_C.BMP,stimuli/14F_NE_C.BMP,stimuli/EmptyFrame.bmp,stimuli/RedFrame.bmp,1,Neutral,Female,3,1,1.0,372.5252380371094,372.5252380371094,0.0,376.4607849121094,376.4607849121094,0.0,375.4725036621094,375.4725036621094,0.0,1.0,1.0,0.0,'1',0.7493119835853577,0.7493119835853577,0.0,89.0
Neutral,stimuli/25M_NE_C.BMP,stimuli/29M_NE_C.BMP,stimuli/25M_NE_C.BMP,stimuli/EmptyFrame.bmp,stimuli/RedFrame.bmp,2,Neutral,Male,3,1,1.0,376.4801940917969,376.4801940917969,0.0,380.4819641113281,380.4819641113281,0.0,379.4919128417969,379.4919128417969,0.0,1.0,1.0,0.0,'2',0.9148278832435608,0.9148278832435608,0.0,90.0
Neutral,stimuli/26M_NE_C.BMP,stimuli/26M_NE_C.BMP,stimuli/28M_NE_C.BMP,stimuli/EmptyFrame.bmp,stimuli/RedFrame.bmp,1,Neutral,Male,3,1,1.0,380.5088195800781,380.5088195800781,0.0,384.4974365234375,384.4974365234375,0.0,383.5163269042969,383.5163269042969,0.0,1.0,1.0,0.0,'1',0.8647133708000183,0.8647133708000183,0.0,91.0
Neutral,stimuli/08F_NE_C.BMP,stimuli/13F_NE_C.BMP,stimuli/08F_NE_C.BMP,stimuli/EmptyFrame.bmp,stimuli/RedFrame.bmp,2,Neutral,Female,3,1,1.0,384.5237121582031,384.5237121582031,0.0,388.50836181640625,388.50836181640625,0.0,387.52716064453125,387.52716064453125,0.0,1.0,1.0,0.0,'2',0.928600013256073,0.928600013256073,0.0,92.0
Neutral,stimuli/09F_NE_C.BMP,stimuli/09F_NE_C.BMP,stimuli/12F_NE_C.BMP,stimuli/EmptyFrame.bmp,stimuli/RedFrame.bmp,1,Neutral,Female,3,1,1.0,388.5369567871094,388.5369567871094,0.0,392.52044677734375,392.52044677734375,0.0,391.5446472167969,391.5446472167969,0.0,1.0,1.0,0.0,'1',0.8097931146621704,0.8097931146621704,0.0,93.0
Neutral,stimuli/27M_NE_C.BMP,stimuli/26M_NE_C.BMP,stimuli/27M_NE_C.BMP,stimuli/EmptyFrame.bmp,stimuli/RedFrame.bmp,2,Neutral,Male,3,1,1.0,392.5429382324219,392.5429382324219,0.0,396.536376953125,396.536376953125,0.0,395.5437316894531,395.5437316894531,0.0,1.0,1.0,0.0,'2',0.8620495796203613,0.8620495796203613,0.0,94.0
Neutral,stimuli/28M_NE_C.BMP,stimuli/28M_NE_C.BMP,stimuli/25M_NE_C.BMP,stimuli/EmptyFrame.bmp,stimuli/RedFrame.bmp,1,Neutral,Male,3,1,1.0,396.5661315917969,396.5661315917969,0.0,400.5614318847656,400.5614318847656,0.0,399.5660400390625,399.5660400390625,0.0,1.0,1.0,0.0,'1',1.2105344533920288,1.2105344533920288,0.0,95.0
Neutral,stimuli/10F_NE_C.BMP,stimuli/11F_NE_C.BMP,stimuli/10F_NE_C.BMP,stimuli/EmptyFrame.bmp,stimuli/RedFrame.bmp,2,Neutral,Female,3,1,1.0,400.5929260253906,400.5929260253906,0.0,404.5871887207031,404.5871887207031,0.0,403.603515625,403.603515625,0.0,1.0,1.0,0.0,'2',0.8350201845169067,0.8350201845169067,0.0,96.0
Neutral,stimuli/29M_NE_C.BMP,stimuli/29M_NE_C.BMP,stimuli/24M_NE_C.BMP,stimuli/EmptyFrame.bmp,stimuli/RedFrame.bmp,1,Neutral,Male,3,1,1.0,404.6105041503906,404.6105041503906,0.0,408.61187744140625,408.61187744140625,0.0,407.6209716796875,407.6209716796875,0.0,1.0,1.0,0.0,'1',0.8530740737915039,0.8530740737915039,0.0,97.0
Neutral,stimuli/11F_NE_C.BMP,stimuli/10F_NE_C.BMP,stimuli/11F_NE_C.BMP,stimuli/EmptyFrame.bmp,stimuli/RedFrame.bmp,2,Neutral,Female,3,1,1.0,408.6369323730469,408.6369323730469,0.0,412.6325988769531,412.6325988769531,0.0,411.650634765625,411.650634765625,0.0,1.0,1.0,0.0,'2',1.023398518562317,1.023398518562317,0.0,98.0
MatchFaces,stimuli/MatchFaces.bmp,stimuli/EmptyFace.bmp,stimuli/EmptyFace.bmp,stimuli/EmptyFrame.bmp,stimuli/EmptyFrame.bmp,Null,None,None,3,1,1.0,412.91845703125,412.91845703125,0.0,416.643798828125,416.643798828125,0.0,415.6479797363281,415.6479797363281,0.0,0.0,0.0,0.0,,,,,99.0
Fear,stimuli/23M_FE_O.BMP,stimuli/23M_FE_O.BMP,stimuli/24M_FE_O.BMP,stimuli/EmptyFrame.bmp,stimuli/RedFrame.bmp,1,Fear,Male,3,1,1.0,416.71044921875,416.71044921875,0.0,420.671630859375,420.671630859375,0.0,419.6845397949219,419.6845397949219,0.0,1.0,1.0,0.0,'1',0.9747387170791626,0.9747387170791626,0.0,100.0
Fear,stimuli/19F_FE_O.BMP,stimuli/18F_FE_O.BMP,stimuli/19F_FE_O.BMP,stimuli/EmptyFrame.bmp,stimuli/RedFrame.bmp,2,Fear,Female,3,1,1.0,420.7032470703125,420.7032470703125,0.0,424.6842346191406,424.6842346191406,0.0,423.6966857910156,423.6966857910156,0.0,1.0,1.0,0.0,'2',0.8969125151634216,0.8969125151634216,0.0,101.0
Fear,stimuli/17F_FE_O.BMP,stimuli/17F_FE_O.BMP,stimuli/16F_FE_O.BMP,stimuli/EmptyFrame.bmp,stimuli/RedFrame.bmp,1,Fear,Female,3,1,1.0,424.70880126953125,424.70880126953125,0.0,428.70166015625,428.70166015625,0.0,427.7058410644531,427.7058410644531,0.0,1.0,1.0,0.0,'1',1.139528751373291,1.139528751373291,0.0,102.0
Fear,stimuli/15F_FE_O.BMP,stimuli/18F_FE_O.BMP,stimuli/15F_FE_O.BMP,stimuli/EmptyFrame.bmp,stimuli/RedFrame.bmp,2,Fear,Female,3,1,1.0,428.72796630859375,428.72796630859375,0.0,432.7205810546875,432.7205810546875,0.0,431.72930908203125,431.72930908203125,0.0,1.0,1.0,0.0,'2',0.9798322916030884,0.9798322916030884,0.0,103.0
Fear,stimuli/21M_FE_O.BMP,stimuli/21M_FE_O.BMP,stimuli/22M_FE_O.BMP,stimuli/EmptyFrame.bmp,stimuli/RedFrame.bmp,1,Fear,Male,3,1,1.0,432.7500305175781,432.7500305175781,0.0,436.74200439453125,436.74200439453125,0.0,435.74993896484375,435.74993896484375,0.0,1.0,1.0,0.0,'1',0.8784577250480652,0.8784577250480652,0.0,104.0
Fear,stimuli/29M_FE_O.BMP,stimuli/30M_FE_O.BMP,stimuli/29M_FE_O.BMP,stimuli/EmptyFrame.bmp,stimuli/RedFrame.bmp,2,Fear,Male,3,1,1.0,436.773681640625,436.773681640625,0.0,440.778076171875,440.778076171875,0.0,439.7688293457031,439.7688293457031,0.0,1.0,1.0,0.0,'2',0.9699094891548157,0.9699094891548157,0.0,105.0
Fear,stimuli/31M_FE_O.BMP,stimuli/31M_FE_O.BMP,stimuli/38M_FE_O.BMP,stimuli/EmptyFrame.bmp,stimuli/RedFrame.bmp,1,Fear,Male,3,1,1.0,440.8105163574219,440.8105163574219,0.0,444.79742431640625,444.79742431640625,0.0,443.8263244628906,443.8263244628906,0.0,1.0,1.0,0.0,'1',0.9938706755638123,0.9938706755638123,0.0,106.0
Fear,stimuli/09F_FE_O.BMP,stimuli/07F_FE_O.BMP,stimuli/09F_FE_O.BMP,stimuli/EmptyFrame.bmp,stimuli/RedFrame.bmp,2,Fear,Female,3,1,1.0,444.81976318359375,444.81976318359375,0.0,448.8077392578125,448.8077392578125,0.0,447.8295593261719,447.8295593261719,0.0,1.0,1.0,0.0,'2',1.0525826215744019,1.0525826215744019,0.0,107.0
Fear,stimuli/11F_FE_O.BMP,stimuli/12F_FE_O.BMP,stimuli/11F_FE_O.BMP,stimuli/EmptyFrame.bmp,stimuli/RedFrame.bmp,2,Fear,Female,3,1,1.0,448.8321228027344,448.8321228027344,0.0,452.8211364746094,452.8211364746094,0.0,451.84100341796875,451.84100341796875,0.0,1.0,1.0,0.0,'2',1.072141408920288,1.072141408920288,0.0,108.0
Fear,stimuli/34M_FE_O.BMP,stimuli/34M_FE_O.BMP,stimuli/33M_FE_O.BMP,stimuli/EmptyFrame.bmp,stimuli/RedFrame.bmp,1,Fear,Male,3,1,1.0,452.8509826660156,452.8509826660156,0.0,456.84686279296875,456.84686279296875,0.0,455.84912109375,455.84912109375,0.0,1.0,1.0,0.0,'1',0.8374618291854858,0.8374618291854858,0.0,109.0

extraInfo
participant,sub005
session,001
date,2025_May_20_0854
expName,HaririTask_Ver1
psychopyVersion,3.0.1
frameRate,None
