TrialType,Top,Left,Right,EmptyFrame,SelectedFrame,Correct,Emotion,Gender,TrialLength,FixationLength,trials.thisRepN,trials.thisTrialN,trials.thisN,trials.thisIndex,key_resp_starttask.keys,key_resp_starttask.rt,GCBeginningFixationStartTime,GCBeginningFixationEndTime,key_resp_trial.keys,key_resp_trial.corr,GCFaceStartTime,GCPostFaceFixationStartTime,GCPostFaceFixationEndTime,key_resp_trial.rt,GCEndingFixationStartTime,GCEndingFixationEndTime,participant,session,date,expName,psychopyVersion,frameRate,
,,,,,,,,,,,,,,,5,34.486922999843955,,,,,,,,,,,sub009,001,2025_Jun_03_0905,HaririTask_Ver1,3.0.1,None,
MatchFaces,stimuli/MatchFaces.bmp,stimuli/EmptyFace.bmp,stimuli/EmptyFace.bmp,stimuli/EmptyFrame.bmp,stimuli/EmptyFrame.bmp,Null,None,None,3,1,0,0,0,0,,,2.1997839212417603e-06,15.005592499859631,None,0,15.222654799930751,18.05990759981796,19.053953299764544,,,,sub009,001,2025_Jun_03_0905,HaririTask_Ver1,3.0.1,None,
Anger,stimuli/01F_AN_O.bmp,stimuli/19F_AN_O.BMP,stimuli/01F_AN_O.bmp,stimuli/EmptyFrame.bmp,stimuli/RedFrame.bmp,2,Anger,Female,3,1,0,1,1,1,,,,,2,1,19.26611049985513,22.07715589972213,23.072427599690855,1.0186588000506163,,,sub009,001,2025_Jun_03_0905,HaririTask_Ver1,3.0.1,None,
Anger,stimuli/02f_an_o.bmp,stimuli/18F_AN_O.BMP,stimuli/02f_an_o.bmp,stimuli/EmptyFrame.bmp,stimuli/RedFrame.bmp,2,Anger,Female,3,1,0,2,2,2,,,,,2,1,23.10188309988007,26.1039374996908,27.091956899967045,0.9994147997349501,,,sub009,001,2025_Jun_03_0905,HaririTask_Ver1,3.0.1,None,
Anger,stimuli/20M_AN_O.BMP,stimuli/34M_AN_O.BMP,stimuli/20M_AN_O.BMP,stimuli/EmptyFrame.bmp,stimuli/RedFrame.bmp,2,Anger,Male,3,1,0,3,3,3,,,,,2,1,27.123034899588674,30.12144759995863,31.200421799905598,1.0475627002306283,,,sub009,001,2025_Jun_03_0905,HaririTask_Ver1,3.0.1,None,
Anger,stimuli/03F_AN_O.bmp,stimuli/03F_AN_O.bmp,stimuli/17F_AN_O.BMP,stimuli/EmptyFrame.bmp,stimuli/RedFrame.bmp,1,Anger,Female,3,1,0,4,4,4,,,,,1,1,31.2462366996333,34.22493299981579,35.21943539986387,0.9434293997474015,,,sub009,001,2025_Jun_03_0905,HaririTask_Ver1,3.0.1,None,
Anger,stimuli/21M_AN_O.BMP,stimuli/21M_AN_O.BMP,stimuli/33M_AN_O.BMP,stimuli/EmptyFrame.bmp,stimuli/RedFrame.bmp,1,Anger,Male,3,1,0,5,5,5,,,,,1,1,35.24889129959047,38.254620200023055,39.2359202997759,0.7591292997822165,,,sub009,001,2025_Jun_03_0905,HaririTask_Ver1,3.0.1,None,
Anger,stimuli/22M_AN_O.BMP,stimuli/32M_AN_O.BMP,stimuli/22M_AN_O.BMP,stimuli/EmptyFrame.bmp,stimuli/RedFrame.bmp,2,Anger,Male,3,1,0,6,6,6,,,,,2,1,39.263875199947506,42.261223199777305,43.24633799958974,1.1804102999158204,,,sub009,001,2025_Jun_03_0905,HaririTask_Ver1,3.0.1,None,
Anger,stimuli/23M_AN_O.BMP,stimuli/23M_AN_O.BMP,stimuli/31M_AN_O.BMP,stimuli/EmptyFrame.bmp,stimuli/RedFrame.bmp,1,Anger,Male,3,1,0,7,7,7,,,,,1,1,43.27241039974615,46.27552739996463,47.25861799996346,0.7823725999332964,,,sub009,001,2025_Jun_03_0905,HaririTask_Ver1,3.0.1,None,
Anger,stimuli/05F_AN_O.bmp,stimuli/05F_AN_O.bmp,stimuli/16F_AN_O.BMP,stimuli/EmptyFrame.bmp,stimuli/RedFrame.bmp,1,Anger,Female,3,1,0,8,8,8,,,,,1,1,47.28680229978636,50.28340159961954,51.27284340001643,1.0715037998743355,,,sub009,001,2025_Jun_03_0905,HaririTask_Ver1,3.0.1,None,
Anger,stimuli/06F_AN_O.bmp,stimuli/15F_AN_O.BMP,stimuli/06F_AN_O.bmp,stimuli/EmptyFrame.bmp,stimuli/RedFrame.bmp,2,Anger,Female,3,1,0,9,9,9,,,,,2,1,51.30244420003146,54.30410209996626,55.29699129983783,0.79363749967888,,,sub009,001,2025_Jun_03_0905,HaririTask_Ver1,3.0.1,None,
Anger,stimuli/24M_AN_O.BMP,stimuli/24M_AN_O.BMP,stimuli/30M_AN_O.BMP,stimuli/EmptyFrame.bmp,stimuli/RedFrame.bmp,1,Anger,Male,3,1,0,10,10,10,,,,,1,1,55.32300019962713,58.32502490002662,59.3080329997465,1.0237278998829424,,,sub009,001,2025_Jun_03_0905,HaririTask_Ver1,3.0.1,None,
MatchShape,stimuli/MatchShapes.bmp,stimuli/EmptyFace.bmp,stimuli/EmptyFace.bmp,stimuli/EmptyFrame.bmp,stimuli/EmptyFrame.bmp,Null,None,None,3,1,0,11,11,11,,,,,None,0,59.33331129979342,62.32520699966699,63.32131219981238,,,,sub009,001,2025_Jun_03_0905,HaririTask_Ver1,3.0.1,None,
Shape,stimuli/horizontal.bmp,stimuli/horizontal.bmp,stimuli/circle.bmp,stimuli/EmptyFrame.bmp,stimuli/RedFrame.bmp,1,Shape,None,3,1,0,12,12,12,,,,,1,1,63.35631669964641,66.34327839966863,67.33755299961194,0.7447386998683214,,,sub009,001,2025_Jun_03_0905,HaririTask_Ver1,3.0.1,None,
Shape,stimuli/vertical.bmp,stimuli/horizontal.bmp,stimuli/vertical.bmp,stimuli/EmptyFrame.bmp,stimuli/RedFrame.bmp,2,Shape,None,3,1,0,13,13,13,,,,,2,1,67.36319840000942,70.37352859973907,71.36116999993101,0.7562301000580192,,,sub009,001,2025_Jun_03_0905,HaririTask_Ver1,3.0.1,None,
Shape,stimuli/horizontal.bmp,stimuli/horizontal.bmp,stimuli/vertical.bmp,stimuli/EmptyFrame.bmp,stimuli/RedFrame.bmp,1,Shape,None,3,1,0,14,14,14,,,,,1,1,71.38147969963029,74.38285309961066,75.3831085995771,0.7268388997763395,,,sub009,001,2025_Jun_03_0905,HaririTask_Ver1,3.0.1,None,
Shape,stimuli/horizontal.bmp,stimuli/circle.bmp,stimuli/horizontal.bmp,stimuli/EmptyFrame.bmp,stimuli/RedFrame.bmp,2,Shape,None,3,1,0,15,15,15,,,,,2,1,75.40220259968191,78.40736990002915,79.39837419986725,0.6656734002754092,,,sub009,001,2025_Jun_03_0905,HaririTask_Ver1,3.0.1,None,
Shape,stimuli/circle.bmp,stimuli/circle.bmp,stimuli/vertical.bmp,stimuli/EmptyFrame.bmp,stimuli/RedFrame.bmp,1,Shape,None,3,1,0,16,16,16,,,,,1,1,79.41871879994869,82.42630960000679,83.41503569995984,0.8727937997318804,,,sub009,001,2025_Jun_03_0905,HaririTask_Ver1,3.0.1,None,
Shape,stimuli/circle.bmp,stimuli/circle.bmp,stimuli/horizontal.bmp,stimuli/EmptyFrame.bmp,stimuli/RedFrame.bmp,1,Shape,None,3,1,0,17,17,17,,,,,1,1,83.4387903995812,86.44653219962493,87.43807909963652,0.8922187997959554,,,sub009,001,2025_Jun_03_0905,HaririTask_Ver1,3.0.1,None,
Shape,stimuli/vertical.bmp,stimuli/circle.bmp,stimuli/vertical.bmp,stimuli/EmptyFrame.bmp,stimuli/RedFrame.bmp,2,Shape,None,3,1,0,18,18,18,,,,,2,1,87.46220319997519,90.46024989988655,91.45060089975595,0.6248244997113943,,,sub009,001,2025_Jun_03_0905,HaririTask_Ver1,3.0.1,None,
Shape,stimuli/circle.bmp,stimuli/vertical.bmp,stimuli/circle.bmp,stimuli/EmptyFrame.bmp,stimuli/RedFrame.bmp,2,Shape,None,3,1,0,19,19,19,,,,,2,1,91.47439129976556,94.47971019987017,95.46897329995409,0.6506389998830855,,,sub009,001,2025_Jun_03_0905,HaririTask_Ver1,3.0.1,None,
Shape,stimuli/vertical.bmp,stimuli/horizontal.bmp,stimuli/vertical.bmp,stimuli/EmptyFrame.bmp,stimuli/RedFrame.bmp,2,Shape,None,3,1,0,20,20,20,,,,,2,1,95.48776509985328,98.5030274996534,99.48092689970508,1.4633236001245677,,,sub009,001,2025_Jun_03_0905,HaririTask_Ver1,3.0.1,None,
Shape,stimuli/vertical.bmp,stimuli/vertical.bmp,stimuli/circle.bmp,stimuli/EmptyFrame.bmp,stimuli/RedFrame.bmp,1,Shape,None,3,1,0,21,21,21,,,,,1,1,99.50148630002514,102.51811710000038,103.49153949972242,0.7376875998452306,,,sub009,001,2025_Jun_03_0905,HaririTask_Ver1,3.0.1,None,
MatchFaces,stimuli/MatchFaces.bmp,stimuli/EmptyFace.bmp,stimuli/EmptyFace.bmp,stimuli/EmptyFrame.bmp,stimuli/EmptyFrame.bmp,Null,None,None,3,1,0,22,22,22,,,,,None,0,103.7662064996548,106.50045019993559,107.49802279984578,,,,sub009,001,2025_Jun_03_0905,HaririTask_Ver1,3.0.1,None,
Neutral,stimuli/20M_NE_C.BMP,stimuli/21M_NE_C.BMP,stimuli/20M_NE_C.BMP,stimuli/EmptyFrame.bmp,stimuli/RedFrame.bmp,2,Neutral,Male,3,1,0,23,23,23,,,,,2,1,107.60606979997829,110.53050919994712,111.5078586996533,1.3242788999341428,,,sub009,001,2025_Jun_03_0905,HaririTask_Ver1,3.0.1,None,
Neutral,stimuli/01F_NE_C.bmp,stimuli/01F_NE_C.bmp,stimuli/02F_NE_C.bmp,stimuli/EmptyFrame.bmp,stimuli/RedFrame.bmp,1,Neutral,Female,3,1,0,24,24,24,,,,,1,1,111.53337179962546,114.5434340997599,115.52455689990893,0.8620510003529489,,,sub009,001,2025_Jun_03_0905,HaririTask_Ver1,3.0.1,None,
Neutral,stimuli/22M_NE_C.BMP,stimuli/23M_NE_C.BMP,stimuli/22M_NE_C.BMP,stimuli/EmptyFrame.bmp,stimuli/RedFrame.bmp,2,Neutral,Male,3,1,0,25,25,25,,,,,2,1,115.55650009959936,118.55706949997693,119.54405239969492,1.2457423000596464,,,sub009,001,2025_Jun_03_0905,HaririTask_Ver1,3.0.1,None,
Neutral,stimuli/24M_NE_C.BMP,stimuli/24M_NE_C.BMP,stimuli/25M_NE_C.BMP,stimuli/EmptyFrame.bmp,stimuli/RedFrame.bmp,1,Neutral,Male,3,1,0,26,26,26,,,,,1,1,119.57026209961623,122.5753885996528,123.56483369972557,0.8980517997406423,,,sub009,001,2025_Jun_03_0905,HaririTask_Ver1,3.0.1,None,
Neutral,stimuli/03F_NE_C.bmp,stimuli/05F_NE_C.bmp,stimuli/03F_NE_C.bmp,stimuli/EmptyFrame.bmp,stimuli/RedFrame.bmp,2,Neutral,Female,3,1,0,27,27,27,,,,,2,1,123.63002129970118,126.59145519975573,127.57458929996938,0.9474291000515223,,,sub009,001,2025_Jun_03_0905,HaririTask_Ver1,3.0.1,None,
Neutral,stimuli/26M_NE_C.BMP,stimuli/26M_NE_C.BMP,stimuli/27M_NE_C.BMP,stimuli/EmptyFrame.bmp,stimuli/RedFrame.bmp,1,Neutral,Male,3,1,0,28,28,28,,,,,1,1,127.60279199993238,130.5978613998741,131.5931732999161,0.7513072001747787,,,sub009,001,2025_Jun_03_0905,HaririTask_Ver1,3.0.1,None,
Neutral,stimuli/06F_NE_C.bmp,stimuli/07F_NE_C.BMP,stimuli/06F_NE_C.bmp,stimuli/EmptyFrame.bmp,stimuli/RedFrame.bmp,2,Neutral,Female,3,1,0,29,29,29,,,,,2,1,131.6214975998737,134.61995589965954,135.61277619982138,0.9248585002496839,,,sub009,001,2025_Jun_03_0905,HaririTask_Ver1,3.0.1,None,
Neutral,stimuli/08F_NE_C.BMP,stimuli/08F_NE_C.BMP,stimuli/09F_NE_C.BMP,stimuli/EmptyFrame.bmp,stimuli/RedFrame.bmp,1,Neutral,Female,3,1,0,30,30,30,,,,,1,1,135.63672239985317,138.6460146997124,139.63017739960924,0.983582700137049,,,sub009,001,2025_Jun_03_0905,HaririTask_Ver1,3.0.1,None,
Neutral,stimuli/28M_NE_C.BMP,stimuli/29M_NE_C.BMP,stimuli/28M_NE_C.BMP,stimuli/EmptyFrame.bmp,stimuli/RedFrame.bmp,2,Neutral,Male,3,1,0,31,31,31,,,,,2,1,139.6563055999577,142.66420999960974,143.64614329999313,1.163288400042802,,,sub009,001,2025_Jun_03_0905,HaririTask_Ver1,3.0.1,None,
Neutral,stimuli/10F_NE_C.BMP,stimuli/10F_NE_C.BMP,stimuli/06F_NE_C.bmp,stimuli/EmptyFrame.bmp,stimuli/RedFrame.bmp,1,Neutral,Female,3,1,0,32,32,32,,,,,1,1,143.66766339959577,146.67913990002126,147.65839320002124,0.7555320002138615,,,sub009,001,2025_Jun_03_0905,HaririTask_Ver1,3.0.1,None,
MatchFaces,stimuli/MatchFaces.bmp,stimuli/EmptyFace.bmp,stimuli/EmptyFace.bmp,stimuli/EmptyFrame.bmp,stimuli/EmptyFrame.bmp,Null,None,None,3,1,0,33,33,33,,,,,None,0,147.936055699829,150.67032499983907,151.65970319975168,,,,sub009,001,2025_Jun_03_0905,HaririTask_Ver1,3.0.1,None,
Fear,stimuli/07F_FE_O.BMP,stimuli/07F_FE_O.BMP,stimuli/14F_FE_O.BMP,stimuli/EmptyFrame.bmp,stimuli/RedFrame.bmp,1,Fear,Female,3,1,0,34,34,34,,,,,1,1,151.7290559997782,154.6885730996728,155.6812609997578,0.9614515001885593,,,sub009,001,2025_Jun_03_0905,HaririTask_Ver1,3.0.1,None,
Fear,stimuli/25M_FE_O.BMP,stimuli/29M_FE_O.BMP,stimuli/25M_FE_O.BMP,stimuli/EmptyFrame.bmp,stimuli/RedFrame.bmp,2,Fear,Male,3,1,0,35,35,35,,,,,2,1,155.70548269990832,158.71178559958935,159.69465239997953,0.9173955996520817,,,sub009,001,2025_Jun_03_0905,HaririTask_Ver1,3.0.1,None,
Fear,stimuli/26M_FE_O.BMP,stimuli/26M_FE_O.BMP,stimuli/28M_FE_O.BMP,stimuli/EmptyFrame.bmp,stimuli/RedFrame.bmp,1,Fear,Male,3,1,0,36,36,36,,,,,1,1,159.7322812997736,162.7258405997418,163.71575809968635,0.9338485999032855,,,sub009,001,2025_Jun_03_0905,HaririTask_Ver1,3.0.1,None,
Fear,stimuli/08F_FE_O.BMP,stimuli/13F_FE_O.BMP,stimuli/08F_FE_O.BMP,stimuli/EmptyFrame.bmp,stimuli/RedFrame.bmp,2,Fear,Female,3,1,0,37,37,37,,,,,2,1,163.7404616996646,166.73860379960388,167.73280059965327,1.1437127999961376,,,sub009,001,2025_Jun_03_0905,HaririTask_Ver1,3.0.1,None,
Fear,stimuli/09F_FE_O.BMP,stimuli/09F_FE_O.BMP,stimuli/12F_FE_O.BMP,stimuli/EmptyFrame.bmp,stimuli/RedFrame.bmp,1,Fear,Female,3,1,0,38,38,38,,,,,1,1,167.76097659999505,170.77042680000886,171.7520004999824,0.8078890000469983,,,sub009,001,2025_Jun_03_0905,HaririTask_Ver1,3.0.1,None,
Fear,stimuli/27M_FE_O.BMP,stimuli/26M_FE_O.BMP,stimuli/27M_FE_O.BMP,stimuli/EmptyFrame.bmp,stimuli/RedFrame.bmp,2,Fear,Male,3,1,0,39,39,39,,,,,2,1,171.77882899995893,174.77370569994673,175.76512009976432,1.1806503999978304,,,sub009,001,2025_Jun_03_0905,HaririTask_Ver1,3.0.1,None,
Fear,stimuli/28M_FE_O.BMP,stimuli/28M_FE_O.BMP,stimuli/25M_FE_O.BMP,stimuli/EmptyFrame.bmp,stimuli/RedFrame.bmp,1,Fear,Male,3,1,0,40,40,40,,,,,1,1,175.78598459996283,178.79559429967776,179.7877390999347,0.9721363997086883,,,sub009,001,2025_Jun_03_0905,HaririTask_Ver1,3.0.1,None,
Fear,stimuli/10F_FE_O.BMP,stimuli/11F_FE_O.BMP,stimuli/10F_FE_O.BMP,stimuli/EmptyFrame.bmp,stimuli/RedFrame.bmp,2,Fear,Female,3,1,0,41,41,41,,,,,2,1,179.81353199994192,182.81091989995912,183.81115229986608,0.7243631002493203,,,sub009,001,2025_Jun_03_0905,HaririTask_Ver1,3.0.1,None,
Fear,stimuli/29M_FE_O.BMP,stimuli/29M_FE_O.BMP,stimuli/24M_FE_O.BMP,stimuli/EmptyFrame.bmp,stimuli/RedFrame.bmp,1,Fear,Male,3,1,0,42,42,42,,,,,1,1,183.87470589997247,186.8428624998778,187.82413710001856,0.7108486997894943,,,sub009,001,2025_Jun_03_0905,HaririTask_Ver1,3.0.1,None,
Fear,stimuli/11F_FE_O.BMP,stimuli/10F_FE_O.BMP,stimuli/11F_FE_O.BMP,stimuli/EmptyFrame.bmp,stimuli/RedFrame.bmp,2,Fear,Female,3,1,0,43,43,43,,,,,2,1,187.84628319973126,190.86218619998544,191.8425517999567,0.6682485998608172,,,sub009,001,2025_Jun_03_0905,HaririTask_Ver1,3.0.1,None,
MatchFaces,stimuli/MatchFaces.bmp,stimuli/EmptyFace.bmp,stimuli/EmptyFace.bmp,stimuli/EmptyFrame.bmp,stimuli/EmptyFrame.bmp,Null,None,None,3,1,0,44,44,44,,,,,None,0,192.05791779980063,194.85255559999496,195.84927939996123,,,,sub009,001,2025_Jun_03_0905,HaririTask_Ver1,3.0.1,None,
Happy,stimuli/19F_HA_O.BMP,stimuli/19F_HA_O.BMP,stimuli/18F_HA_O.BMP,stimuli/EmptyFrame.bmp,stimuli/RedFrame.bmp,1,Happy,Female,3,1,0,45,45,45,,,,,1,1,195.92313809972256,198.8759625996463,199.86329329991713,0.7888575000688434,,,sub009,001,2025_Jun_03_0905,HaririTask_Ver1,3.0.1,None,
Happy,stimuli/17F_HA_O.BMP,stimuli/16F_HA_O.BMP,stimuli/17F_HA_O.BMP,stimuli/EmptyFrame.bmp,stimuli/RedFrame.bmp,2,Happy,Female,3,1,0,46,46,46,,,,,2,1,199.88716739974916,202.88805129984394,203.87863519974053,1.131351999938488,,,sub009,001,2025_Jun_03_0905,HaririTask_Ver1,3.0.1,None,
Happy,stimuli/43M_HA_O.BMP,stimuli/42M_HA_O.BMP,stimuli/43M_HA_O.BMP,stimuli/EmptyFrame.bmp,stimuli/RedFrame.bmp,2,Happy,Male,3,1,0,47,47,47,,,,,2,1,203.94233839958906,206.90722669987008,207.89362879982218,0.7300466001033783,,,sub009,001,2025_Jun_03_0905,HaririTask_Ver1,3.0.1,None,
Happy,stimuli/41M_HA_O.BMP,stimuli/41M_HA_O.BMP,stimuli/40M_HA_O.BMP,stimuli/EmptyFrame.bmp,stimuli/RedFrame.bmp,1,Happy,Male,3,1,0,48,48,48,,,,,1,1,207.92084249993786,210.92042959993705,211.9092603996396,0.7677093995735049,,,sub009,001,2025_Jun_03_0905,HaririTask_Ver1,3.0.1,None,
Happy,stimuli/15F_HA_O.BMP,stimuli/15F_HA_O.BMP,stimuli/14F_HA_O.BMP,stimuli/EmptyFrame.bmp,stimuli/RedFrame.bmp,1,Happy,Female,3,1,0,49,49,49,,,,,1,1,211.93556579994038,214.94098659977317,215.92931719962507,1.2191163999959826,,,sub009,001,2025_Jun_03_0905,HaririTask_Ver1,3.0.1,None,
Happy,stimuli/13F_HA_O.BMP,stimuli/13F_HA_O.BMP,stimuli/12F_HA_O.BMP,stimuli/EmptyFrame.bmp,stimuli/RedFrame.bmp,1,Happy,Female,3,1,0,50,50,50,,,,,1,1,215.9896235000342,218.9532400998287,219.94155889982358,0.7598577998578548,,,sub009,001,2025_Jun_03_0905,HaririTask_Ver1,3.0.1,None,
Happy,stimuli/39M_HA_O.BMP,stimuli/38M_HA_O.BMP,stimuli/39M_HA_O.BMP,stimuli/EmptyFrame.bmp,stimuli/RedFrame.bmp,2,Happy,Male,3,1,0,51,51,51,,,,,2,1,219.96854649996385,222.97117129992694,223.95440599974245,0.6590636996552348,,,sub009,001,2025_Jun_03_0905,HaririTask_Ver1,3.0.1,None,
Happy,stimuli/37M_HA_O.BMP,stimuli/37M_HA_O.BMP,stimuli/36M_HA_O.BMP,stimuli/EmptyFrame.bmp,stimuli/RedFrame.bmp,1,Happy,Male,3,1,0,52,52,52,,,,,1,1,223.97961639985442,226.98818499967456,227.9712272998877,1.178809099830687,,,sub009,001,2025_Jun_03_0905,HaririTask_Ver1,3.0.1,None,
Happy,stimuli/35M_HA_O.BMP,stimuli/34M_HA_O.BMP,stimuli/35M_HA_O.BMP,stimuli/EmptyFrame.bmp,stimuli/RedFrame.bmp,2,Happy,Male,3,1,0,53,53,53,,,,,2,1,227.9946542000398,231.00624099979177,231.9942613998428,0.8851895998232067,,,sub009,001,2025_Jun_03_0905,HaririTask_Ver1,3.0.1,None,
Happy,stimuli/11F_HA_O.BMP,stimuli/10F_HA_O.BMP,stimuli/11F_HA_O.BMP,stimuli/EmptyFrame.bmp,stimuli/RedFrame.bmp,2,Happy,Female,3,1,0,54,54,54,,,,,2,1,232.02449209988117,235.02397409966215,236.0060405996628,0.7387191001325846,,,sub009,001,2025_Jun_03_0905,HaririTask_Ver1,3.0.1,None,
Match Shape,stimuli/MatchShapes.bmp,stimuli/EmptyFace.bmp,stimuli/EmptyFace.bmp,stimuli/EmptyFrame.bmp,stimuli/EmptyFrame.bmp,Null,None,None,3,1,0,55,55,55,,,,,None,0,236.0261423997581,239.01852969964966,240.00830509979278,,,,sub009,001,2025_Jun_03_0905,HaririTask_Ver1,3.0.1,None,
Shape,stimuli/circle.bmp,stimuli/vertical.bmp,stimuli/circle.bmp,stimuli/EmptyFrame.bmp,stimuli/RedFrame.bmp,2,Shape,None,3,1,0,56,56,56,,,,,2,1,240.0371170998551,243.03527170000598,244.0211429996416,0.9345038002356887,,,sub009,001,2025_Jun_03_0905,HaririTask_Ver1,3.0.1,None,
Shape,stimuli/horizontal.bmp,stimuli/circle.bmp,stimuli/horizontal.bmp,stimuli/EmptyFrame.bmp,stimuli/RedFrame.bmp,2,Shape,None,3,1,0,57,57,57,,,,,2,1,244.04494399996474,247.05468359962106,248.03594839992002,0.5550767998211086,,,sub009,001,2025_Jun_03_0905,HaririTask_Ver1,3.0.1,None,
Shape,stimuli/vertical.bmp,stimuli/vertical.bmp,stimuli/horizontal.bmp,stimuli/EmptyFrame.bmp,stimuli/RedFrame.bmp,1,Shape,None,3,1,0,58,58,58,,,,,1,1,248.05927039962262,251.05715399980545,252.04986639972776,1.4419975997880101,,,sub009,001,2025_Jun_03_0905,HaririTask_Ver1,3.0.1,None,
Shape,stimuli/horizontal.bmp,stimuli/circle.bmp,stimuli/horizontal.bmp,stimuli/EmptyFrame.bmp,stimuli/RedFrame.bmp,2,Shape,None,3,1,0,59,59,59,,,,,2,1,252.07431899989024,255.08415269991383,256.06967159966007,0.7861692998558283,,,sub009,001,2025_Jun_03_0905,HaririTask_Ver1,3.0.1,None,
Shape,stimuli/horizontal.bmp,stimuli/horizontal.bmp,stimuli/vertical.bmp,stimuli/EmptyFrame.bmp,stimuli/RedFrame.bmp,1,Shape,None,3,1,0,60,60,60,,,,,1,1,256.0892901998013,259.0943410997279,260.0837429999374,0.9459609002806246,,,sub009,001,2025_Jun_03_0905,HaririTask_Ver1,3.0.1,None,
Shape,stimuli/vertical.bmp,stimuli/vertical.bmp,stimuli/circle.bmp,stimuli/EmptyFrame.bmp,stimuli/RedFrame.bmp,1,Shape,None,3,1,0,61,61,61,,,,,1,1,260.1080656996928,263.1202157996595,264.10336619988084,0.7089598998427391,,,sub009,001,2025_Jun_03_0905,HaririTask_Ver1,3.0.1,None,
Shape,stimuli/circle.bmp,stimuli/horizontal.bmp,stimuli/circle.bmp,stimuli/EmptyFrame.bmp,stimuli/RedFrame.bmp,2,Shape,None,3,1,0,62,62,62,,,,,2,1,264.1273897998035,267.13770049996674,268.1124195000157,0.5931330998428166,,,sub009,001,2025_Jun_03_0905,HaririTask_Ver1,3.0.1,None,
Shape,stimuli/circle.bmp,stimuli/vertical.bmp,stimuli/circle.bmp,stimuli/EmptyFrame.bmp,stimuli/RedFrame.bmp,2,Shape,None,3,1,0,63,63,63,,,,,2,1,268.13489349978045,271.14365659980103,272.12720859982073,0.6028157002292573,,,sub009,001,2025_Jun_03_0905,HaririTask_Ver1,3.0.1,None,
Shape,stimuli/vertical.bmp,stimuli/vertical.bmp,stimuli/horizontal.bmp,stimuli/EmptyFrame.bmp,stimuli/RedFrame.bmp,1,Shape,None,3,1,0,64,64,64,,,,,1,1,272.15582189988345,275.154283599928,276.143810399808,1.115242499858141,,,sub009,001,2025_Jun_03_0905,HaririTask_Ver1,3.0.1,None,
Shape,stimuli/horizontal.bmp,stimuli/horizontal.bmp,stimuli/circle.bmp,stimuli/EmptyFrame.bmp,stimuli/RedFrame.bmp,1,Shape,None,3,1,0,65,65,65,,,,,1,1,276.1664558998309,279.166475399863,280.1538380999118,0.7038203999400139,,,sub009,001,2025_Jun_03_0905,HaririTask_Ver1,3.0.1,None,
MatchFaces,stimuli/MatchFaces.bmp,stimuli/EmptyFace.bmp,stimuli/EmptyFace.bmp,stimuli/EmptyFrame.bmp,stimuli/EmptyFrame.bmp,Null,None,None,3,1,0,66,66,66,,,,,None,0,280.4490833999589,283.17189269978553,284.16103059984744,,,,sub009,001,2025_Jun_03_0905,HaririTask_Ver1,3.0.1,None,
Anger,stimuli/42M_AN_O.BMP,stimuli/42M_AN_O.BMP,stimuli/43M_AN_O.BMP,stimuli/EmptyFrame.bmp,stimuli/RedFrame.bmp,1,Anger,Male,3,1,0,67,67,67,,,,,1,1,284.2247987999581,287.1948306998238,288.18905819999054,0.8263530000112951,,,sub009,001,2025_Jun_03_0905,HaririTask_Ver1,3.0.1,None,
Anger,stimuli/07F_AN_O.BMP,stimuli/07F_AN_O.BMP,stimuli/14F_AN_O.BMP,stimuli/EmptyFrame.bmp,stimuli/RedFrame.bmp,1,Anger,Female,3,1,0,68,68,68,,,,,1,1,288.2351393997669,291.22936559980735,292.20581539999694,0.7005382999777794,,,sub009,001,2025_Jun_03_0905,HaririTask_Ver1,3.0.1,None,
Anger,stimuli/40M_AN_O.BMP,stimuli/41M_AN_O.BMP,stimuli/40M_AN_O.BMP,stimuli/EmptyFrame.bmp,stimuli/RedFrame.bmp,2,Anger,Male,3,1,0,69,69,69,,,,,2,1,292.2364094997756,295.24175879964605,296.21992129972205,0.8476884001865983,,,sub009,001,2025_Jun_03_0905,HaririTask_Ver1,3.0.1,None,
Anger,stimuli/38M_AN_O.BMP,stimuli/39M_AN_O.BMP,stimuli/38M_AN_O.BMP,stimuli/EmptyFrame.bmp,stimuli/RedFrame.bmp,2,Anger,Male,3,1,0,70,70,70,,,,,2,1,296.24576319986954,299.2447107997723,300.2383209997788,0.9906767001375556,,,sub009,001,2025_Jun_03_0905,HaririTask_Ver1,3.0.1,None,
Anger,stimuli/08F_AN_O.BMP,stimuli/08F_AN_O.BMP,stimuli/13F_AN_O.BMP,stimuli/EmptyFrame.bmp,stimuli/RedFrame.bmp,1,Anger,Female,3,1,0,71,71,71,,,,,1,1,300.2687671999447,303.27030169963837,304.25290239974856,0.8506742003373802,,,sub009,001,2025_Jun_03_0905,HaririTask_Ver1,3.0.1,None,
Anger,stimuli/36M_AN_O.BMP,stimuli/37M_AN_O.BMP,stimuli/36M_AN_O.BMP,stimuli/EmptyFrame.bmp,stimuli/RedFrame.bmp,2,Anger,Male,3,1,0,72,72,72,,,,,2,1,304.31592640001327,307.27962079970166,308.2688242997974,0.7735004001297057,,,sub009,001,2025_Jun_03_0905,HaririTask_Ver1,3.0.1,None,
Anger,stimuli/09F_AN_O.BMP,stimuli/12F_AN_O.BMP,stimuli/09F_AN_O.BMP,stimuli/EmptyFrame.bmp,stimuli/RedFrame.bmp,2,Anger,Female,3,1,0,73,73,73,,,,,2,1,308.29459389997646,311.2945404998027,312.28225859999657,0.6694118003360927,,,sub009,001,2025_Jun_03_0905,HaririTask_Ver1,3.0.1,None,
Anger,stimuli/34M_AN_O.BMP,stimuli/35M_AN_O.BMP,stimuli/34M_AN_O.BMP,stimuli/EmptyFrame.bmp,stimuli/RedFrame.bmp,2,Anger,Male,3,1,0,74,74,74,,,,,2,1,312.3107111998834,315.3146226997487,316.2967741996981,0.8067901004105806,,,sub009,001,2025_Jun_03_0905,HaririTask_Ver1,3.0.1,None,
Anger,stimuli/10F_AN_O.BMP,stimuli/10F_AN_O.BMP,stimuli/11F_AN_O.BMP,stimuli/EmptyFrame.bmp,stimuli/RedFrame.bmp,1,Anger,Female,3,1,0,75,75,75,,,,,1,1,316.3245349996723,319.34405609965324,320.3129471000284,0.739417300093919,,,sub009,001,2025_Jun_03_0905,HaririTask_Ver1,3.0.1,None,
Anger,stimuli/12F_AN_O.BMP,stimuli/12F_AN_O.BMP,stimuli/13F_AN_O.BMP,stimuli/EmptyFrame.bmp,stimuli/RedFrame.bmp,1,Anger,Female,3,1,0,76,76,76,,,,,1,1,320.3333321996033,323.3353738998994,324.32783329999074,0.8812241000123322,,,sub009,001,2025_Jun_03_0905,HaririTask_Ver1,3.0.1,None,
MatchFaces,stimuli/MatchFaces.bmp,stimuli/EmptyFace.bmp,stimuli/EmptyFace.bmp,stimuli/EmptyFrame.bmp,stimuli/EmptyFrame.bmp,Null,None,None,3,1,0,77,77,77,,,,,None,0,324.58483169972897,327.3356113997288,328.33695879997686,,,,sub009,001,2025_Jun_03_0905,HaririTask_Ver1,3.0.1,None,
Happy,stimuli/20M_HA_O.BMP,stimuli/21M_HA_O.BMP,stimuli/20M_HA_O.BMP,stimuli/EmptyFrame.bmp,stimuli/RedFrame.bmp,2,Happy,Male,3,1,0,78,78,78,,,,,2,1,328.43901669979095,331.3659448996186,332.36028469959274,1.1290211002342403,,,sub009,001,2025_Jun_03_0905,HaririTask_Ver1,3.0.1,None,
Happy,stimuli/01F_HA_O.bmp,stimuli/01F_HA_O.bmp,stimuli/02F_HA_O.bmp,stimuli/EmptyFrame.bmp,stimuli/RedFrame.bmp,1,Happy,Female,3,1,0,79,79,79,,,,,1,1,332.3900319999084,335.38150939997286,336.37678679963574,0.7887234999798238,,,sub009,001,2025_Jun_03_0905,HaririTask_Ver1,3.0.1,None,
Happy,stimuli/22M_HA_O.BMP,stimuli/23M_HA_O.BMP,stimuli/22M_HA_O.BMP,stimuli/EmptyFrame.bmp,stimuli/RedFrame.bmp,2,Happy,Male,3,1,0,80,80,80,,,,,2,1,336.40510710002854,339.3996385997161,340.38856999995187,1.0945390998385847,,,sub009,001,2025_Jun_03_0905,HaririTask_Ver1,3.0.1,None,
Happy,stimuli/24M_HA_O.BMP,stimuli/24M_HA_O.BMP,stimuli/25M_HA_O.BMP,stimuli/EmptyFrame.bmp,stimuli/RedFrame.bmp,1,Happy,Male,3,1,0,81,81,81,,,,,1,1,340.4110522996634,343.419333699625,344.39833559980616,1.04503189958632,,,sub009,001,2025_Jun_03_0905,HaririTask_Ver1,3.0.1,None,
Happy,stimuli/03F_HA_O.bmp,stimuli/05F_HA_O.bmp,stimuli/03F_HA_O.bmp,stimuli/EmptyFrame.bmp,stimuli/RedFrame.bmp,2,Happy,Female,3,1,0,82,82,82,,,,,2,1,344.42563099972904,347.42620849981904,348.41768939979374,0.8892540000379086,,,sub009,001,2025_Jun_03_0905,HaririTask_Ver1,3.0.1,None,
Happy,stimuli/26M_HA_O.BMP,stimuli/26M_HA_O.BMP,stimuli/27M_HA_O.BMP,stimuli/EmptyFrame.bmp,stimuli/RedFrame.bmp,1,Happy,Male,3,1,0,83,83,83,,,,,1,1,348.4394480995834,351.4471282996237,352.43108419980854,0.7328393999487162,,,sub009,001,2025_Jun_03_0905,HaririTask_Ver1,3.0.1,None,
Happy,stimuli/06F_HA_O.bmp,stimuli/07F_HA_O.BMP,stimuli/06F_HA_O.bmp,stimuli/EmptyFrame.bmp,stimuli/RedFrame.bmp,2,Happy,Female,3,1,0,84,84,84,,,,,2,1,352.45765929995105,355.4629789995961,356.4414438996464,0.8465740997344255,,,sub009,001,2025_Jun_03_0905,HaririTask_Ver1,3.0.1,None,
Happy,stimuli/08F_HA_O.BMP,stimuli/08F_HA_O.BMP,stimuli/09F_HA_O.BMP,stimuli/EmptyFrame.bmp,stimuli/RedFrame.bmp,1,Happy,Female,3,1,0,85,85,85,,,,,1,1,356.4663261999376,359.4676534999162,360.45938629982993,1.0888535999692976,,,sub009,001,2025_Jun_03_0905,HaririTask_Ver1,3.0.1,None,
Happy,stimuli/28M_HA_O.BMP,stimuli/29M_HA_O.BMP,stimuli/28M_HA_O.BMP,stimuli/EmptyFrame.bmp,stimuli/RedFrame.bmp,2,Happy,Male,3,1,0,86,86,86,,,,,2,1,360.48723149998114,363.4834549999796,364.4714267998934,0.8941156999208033,,,sub009,001,2025_Jun_03_0905,HaririTask_Ver1,3.0.1,None,
Happy,stimuli/10F_HA_O.BMP,stimuli/10F_HA_O.BMP,stimuli/06F_HA_O.bmp,stimuli/EmptyFrame.bmp,stimuli/RedFrame.bmp,1,Happy,Female,3,1,0,87,87,87,,,,,1,1,364.49472669977695,367.5008141999133,368.4819311997853,0.6986756999976933,,,sub009,001,2025_Jun_03_0905,HaririTask_Ver1,3.0.1,None,
MatchFaces,stimuli/MatchFaces.bmp,stimuli/EmptyFace.bmp,stimuli/EmptyFace.bmp,stimuli/EmptyFrame.bmp,stimuli/EmptyFrame.bmp,Null,None,None,3,1,0,88,88,88,,,,,None,0,368.69075309997424,371.5021976996213,372.49246259965,,,,sub009,001,2025_Jun_03_0905,HaririTask_Ver1,3.0.1,None,
Neutral,stimuli/07F_NE_C.BMP,stimuli/07F_NE_C.BMP,stimuli/14F_NE_C.BMP,stimuli/EmptyFrame.bmp,stimuli/RedFrame.bmp,1,Neutral,Female,3,1,0,89,89,89,,,,,1,1,372.5658550998196,375.5193334999494,376.51488619996235,0.7866501999087632,,,sub009,001,2025_Jun_03_0905,HaririTask_Ver1,3.0.1,None,
Neutral,stimuli/25M_NE_C.BMP,stimuli/29M_NE_C.BMP,stimuli/25M_NE_C.BMP,stimuli/EmptyFrame.bmp,stimuli/RedFrame.bmp,2,Neutral,Male,3,1,0,90,90,90,,,,,2,1,376.53594679990783,379.5452505997382,380.54025679966435,0.7820663996972144,,,sub009,001,2025_Jun_03_0905,HaririTask_Ver1,3.0.1,None,
Neutral,stimuli/26M_NE_C.BMP,stimuli/26M_NE_C.BMP,stimuli/28M_NE_C.BMP,stimuli/EmptyFrame.bmp,stimuli/RedFrame.bmp,1,Neutral,Male,3,1,0,91,91,91,,,,,1,1,380.56479959981516,383.56791599979624,384.5578815997578,0.6895429999567568,,,sub009,001,2025_Jun_03_0905,HaririTask_Ver1,3.0.1,None,
Neutral,stimuli/08F_NE_C.BMP,stimuli/13F_NE_C.BMP,stimuli/08F_NE_C.BMP,stimuli/EmptyFrame.bmp,stimuli/RedFrame.bmp,2,Neutral,Female,3,1,0,92,92,92,,,,,2,1,384.5822883998044,387.5855370997451,388.5773302996531,0.9143521999940276,,,sub009,001,2025_Jun_03_0905,HaririTask_Ver1,3.0.1,None,
Neutral,stimuli/09F_NE_C.BMP,stimuli/09F_NE_C.BMP,stimuli/12F_NE_C.BMP,stimuli/EmptyFrame.bmp,stimuli/RedFrame.bmp,1,Neutral,Female,3,1,0,93,93,93,,,,,1,1,388.6023626998067,391.6025413000025,392.5913569997065,0.7488893000409007,,,sub009,001,2025_Jun_03_0905,HaririTask_Ver1,3.0.1,None,
Neutral,stimuli/27M_NE_C.BMP,stimuli/26M_NE_C.BMP,stimuli/27M_NE_C.BMP,stimuli/EmptyFrame.bmp,stimuli/RedFrame.bmp,2,Neutral,Male,3,1,0,94,94,94,,,,,2,1,392.61314779985696,395.63338919961825,396.6114103998989,1.37132090004161,,,sub009,001,2025_Jun_03_0905,HaririTask_Ver1,3.0.1,None,
Neutral,stimuli/28M_NE_C.BMP,stimuli/28M_NE_C.BMP,stimuli/25M_NE_C.BMP,stimuli/EmptyFrame.bmp,stimuli/RedFrame.bmp,1,Neutral,Male,3,1,0,95,95,95,,,,,1,1,396.6376594998874,399.64113759994507,400.6203366997652,0.8164177997969091,,,sub009,001,2025_Jun_03_0905,HaririTask_Ver1,3.0.1,None,
Neutral,stimuli/10F_NE_C.BMP,stimuli/11F_NE_C.BMP,stimuli/10F_NE_C.BMP,stimuli/EmptyFrame.bmp,stimuli/RedFrame.bmp,2,Neutral,Female,3,1,0,96,96,96,,,,,2,1,400.64585849968717,403.64143930003047,404.6323675997555,0.6665876000188291,,,sub009,001,2025_Jun_03_0905,HaririTask_Ver1,3.0.1,None,
Neutral,stimuli/29M_NE_C.BMP,stimuli/29M_NE_C.BMP,stimuli/24M_NE_C.BMP,stimuli/EmptyFrame.bmp,stimuli/RedFrame.bmp,1,Neutral,Male,3,1,0,97,97,97,,,,,1,1,404.654913299717,407.6679062996991,408.6497157998383,0.6933110002428293,,,sub009,001,2025_Jun_03_0905,HaririTask_Ver1,3.0.1,None,
Neutral,stimuli/11F_NE_C.BMP,stimuli/10F_NE_C.BMP,stimuli/11F_NE_C.BMP,stimuli/EmptyFrame.bmp,stimuli/RedFrame.bmp,2,Neutral,Female,3,1,0,98,98,98,,,,,2,1,408.6686610998586,411.6740675996989,412.6623957999982,0.600437100045383,,,sub009,001,2025_Jun_03_0905,HaririTask_Ver1,3.0.1,None,
MatchFaces,stimuli/MatchFaces.bmp,stimuli/EmptyFace.bmp,stimuli/EmptyFace.bmp,stimuli/EmptyFrame.bmp,stimuli/EmptyFrame.bmp,Null,None,None,3,1,0,99,99,99,,,,,None,0,412.898187099956,415.7606122996658,416.67120729992166,,,,sub009,001,2025_Jun_03_0905,HaririTask_Ver1,3.0.1,None,
Fear,stimuli/23M_FE_O.BMP,stimuli/23M_FE_O.BMP,stimuli/24M_FE_O.BMP,stimuli/EmptyFrame.bmp,stimuli/RedFrame.bmp,1,Fear,Male,3,1,0,100,100,100,,,,,1,1,416.85195509996265,419.6969855995849,420.6895026997663,0.9061166997998953,,,sub009,001,2025_Jun_03_0905,HaririTask_Ver1,3.0.1,None,
Fear,stimuli/19F_FE_O.BMP,stimuli/18F_FE_O.BMP,stimuli/19F_FE_O.BMP,stimuli/EmptyFrame.bmp,stimuli/RedFrame.bmp,2,Fear,Female,3,1,0,101,101,101,,,,,2,1,420.7140766000375,423.7262163995765,424.7011706996709,0.6894844998605549,,,sub009,001,2025_Jun_03_0905,HaririTask_Ver1,3.0.1,None,
Fear,stimuli/17F_FE_O.BMP,stimuli/17F_FE_O.BMP,stimuli/16F_FE_O.BMP,stimuli/EmptyFrame.bmp,stimuli/RedFrame.bmp,1,Fear,Female,3,1,0,102,102,102,,,,,1,1,424.7282241997309,427.73492849990726,428.7191822999157,0.8100188998505473,,,sub009,001,2025_Jun_03_0905,HaririTask_Ver1,3.0.1,None,
Fear,stimuli/15F_FE_O.BMP,stimuli/18F_FE_O.BMP,stimuli/15F_FE_O.BMP,stimuli/EmptyFrame.bmp,stimuli/RedFrame.bmp,2,Fear,Female,3,1,0,103,103,103,,,,,2,1,428.745563799981,431.7413242999464,432.73090119985864,1.1066600997000933,,,sub009,001,2025_Jun_03_0905,HaririTask_Ver1,3.0.1,None,
Fear,stimuli/21M_FE_O.BMP,stimuli/21M_FE_O.BMP,stimuli/22M_FE_O.BMP,stimuli/EmptyFrame.bmp,stimuli/RedFrame.bmp,1,Fear,Male,3,1,0,104,104,104,,,,,1,1,432.7572609996423,435.764150199946,436.7433596998453,0.8564353999681771,,,sub009,001,2025_Jun_03_0905,HaririTask_Ver1,3.0.1,None,
Fear,stimuli/29M_FE_O.BMP,stimuli/30M_FE_O.BMP,stimuli/29M_FE_O.BMP,stimuli/EmptyFrame.bmp,stimuli/RedFrame.bmp,2,Fear,Male,3,1,0,105,105,105,,,,,2,1,436.7707817996852,439.7710315999575,440.75657639978454,0.7897986997850239,,,sub009,001,2025_Jun_03_0905,HaririTask_Ver1,3.0.1,None,
Fear,stimuli/31M_FE_O.BMP,stimuli/31M_FE_O.BMP,stimuli/38M_FE_O.BMP,stimuli/EmptyFrame.bmp,stimuli/RedFrame.bmp,1,Fear,Male,3,1,0,106,106,106,,,,,1,1,440.78111399989575,443.7817665999755,444.7775638997555,0.7253387002274394,,,sub009,001,2025_Jun_03_0905,HaririTask_Ver1,3.0.1,None,
Fear,stimuli/09F_FE_O.BMP,stimuli/07F_FE_O.BMP,stimuli/09F_FE_O.BMP,stimuli/EmptyFrame.bmp,stimuli/RedFrame.bmp,2,Fear,Female,3,1,0,107,107,107,,,,,2,1,444.80163609981537,447.8129369998351,448.7992900996469,0.6857567001134157,,,sub009,001,2025_Jun_03_0905,HaririTask_Ver1,3.0.1,None,
Fear,stimuli/11F_FE_O.BMP,stimuli/12F_FE_O.BMP,stimuli/11F_FE_O.BMP,stimuli/EmptyFrame.bmp,stimuli/RedFrame.bmp,2,Fear,Female,3,1,0,108,108,108,,,,,2,1,448.8226843997836,451.8247158997692,452.8117541000247,0.6231766999699175,,,sub009,001,2025_Jun_03_0905,HaririTask_Ver1,3.0.1,None,
Fear,stimuli/34M_FE_O.BMP,stimuli/34M_FE_O.BMP,stimuli/33M_FE_O.BMP,stimuli/EmptyFrame.bmp,stimuli/RedFrame.bmp,1,Fear,Male,3,1,0,109,109,109,,,,,1,1,452.8343992996961,455.8367229998112,456.8268824997358,0.6035420000553131,,,sub009,001,2025_Jun_03_0905,HaririTask_Ver1,3.0.1,None,
,,,,,,,,,,,,,,,,,,,,,,,,,456.85141559969634,471.8353834999725,,,,,,,
