TrialType,Top,Left,Right,EmptyFrame,SelectedFrame,Correct,Emotion,Gender,TrialLength,FixationLength,n,GCFaceStartTime_mean,GCFaceStartTime_raw,GCFaceStartTime_std,GCPostFaceFixationEndTime_mean,GCPostFaceFixationEndTime_raw,GCPostFaceFixationEndTime_std,GCPostFaceFixationStartTime_mean,GCPostFaceFixationStartTime_raw,GCPostFaceFixationStartTime_std,key_resp_trial.corr_mean,key_resp_trial.corr_raw,key_resp_trial.corr_std,key_resp_trial.keys_raw,key_resp_trial.rt_mean,key_resp_trial.rt_raw,key_resp_trial.rt_std,order
MatchFaces,stimuli/MatchFaces.bmp,stimuli/EmptyFace.bmp,stimuli/EmptyFace.bmp,stimuli/EmptyFrame.bmp,stimuli/EmptyFrame.bmp,Null,None,None,3,1,1.0,15.321802139282227,15.321802139282227,0.0,19.04448699951172,19.04448699951172,0.0,18.060575485229492,18.060575485229492,0.0,0.0,0.0,0.0,,,,,0.0
Anger,stimuli/01F_AN_O.bmp,stimuli/19F_AN_O.BMP,stimuli/01F_AN_O.bmp,stimuli/EmptyFrame.bmp,stimuli/RedFrame.bmp,2,Anger,Female,3,1,1.0,19.278976440429688,19.278976440429688,0.0,23.061918258666992,23.061918258666992,0.0,22.07635498046875,22.07635498046875,0.0,1.0,1.0,0.0,'2',0.9051283001899719,0.9051283001899719,0.0,1.0
Anger,stimuli/02f_an_o.bmp,stimuli/18F_AN_O.BMP,stimuli/02f_an_o.bmp,stimuli/EmptyFrame.bmp,stimuli/RedFrame.bmp,2,Anger,Female,3,1,1.0,23.0839900970459,23.0839900970459,0.0,27.07038688659668,27.07038688659668,0.0,26.0936336517334,26.0936336517334,0.0,1.0,1.0,0.0,'2',1.159375548362732,1.159375548362732,0.0,2.0
Anger,stimuli/20M_AN_O.BMP,stimuli/34M_AN_O.BMP,stimuli/20M_AN_O.BMP,stimuli/EmptyFrame.bmp,stimuli/RedFrame.bmp,2,Anger,Male,3,1,1.0,27.098148345947266,27.098148345947266,0.0,31.107860565185547,31.107860565185547,0.0,30.10350799560547,30.10350799560547,0.0,1.0,1.0,0.0,'2',1.146994709968567,1.146994709968567,0.0,3.0
Anger,stimuli/03F_AN_O.bmp,stimuli/03F_AN_O.bmp,stimuli/17F_AN_O.BMP,stimuli/EmptyFrame.bmp,stimuli/RedFrame.bmp,1,Anger,Female,3,1,1.0,31.168258666992188,31.168258666992188,0.0,35.12289810180664,35.12289810180664,0.0,34.13262939453125,34.13262939453125,0.0,1.0,1.0,0.0,'1',1.4518556594848633,1.4518556594848633,0.0,4.0
Anger,stimuli/21M_AN_O.BMP,stimuli/21M_AN_O.BMP,stimuli/33M_AN_O.BMP,stimuli/EmptyFrame.bmp,stimuli/RedFrame.bmp,1,Anger,Male,3,1,1.0,35.15308380126953,35.15308380126953,0.0,39.13482666015625,39.13482666015625,0.0,38.150733947753906,38.150733947753906,0.0,1.0,1.0,0.0,'1',1.1663087606430054,1.1663087606430054,0.0,5.0
Anger,stimuli/22M_AN_O.BMP,stimuli/32M_AN_O.BMP,stimuli/22M_AN_O.BMP,stimuli/EmptyFrame.bmp,stimuli/RedFrame.bmp,2,Anger,Male,3,1,1.0,39.16382598876953,39.16382598876953,0.0,43.15439987182617,43.15439987182617,0.0,42.16124725341797,42.16124725341797,0.0,1.0,1.0,0.0,'2',1.2736327648162842,1.2736327648162842,0.0,6.0
Anger,stimuli/23M_AN_O.BMP,stimuli/23M_AN_O.BMP,stimuli/31M_AN_O.BMP,stimuli/EmptyFrame.bmp,stimuli/RedFrame.bmp,1,Anger,Male,3,1,1.0,43.18333053588867,43.18333053588867,0.0,47.17901611328125,47.17901611328125,0.0,46.18977737426758,46.18977737426758,0.0,1.0,1.0,0.0,'1',1.3181970119476318,1.3181970119476318,0.0,7.0
Anger,stimuli/05F_AN_O.bmp,stimuli/05F_AN_O.bmp,stimuli/16F_AN_O.BMP,stimuli/EmptyFrame.bmp,stimuli/RedFrame.bmp,1,Anger,Female,3,1,1.0,47.2548942565918,47.2548942565918,0.0,51.19881057739258,51.19881057739258,0.0,50.21351623535156,50.21351623535156,0.0,1.0,1.0,0.0,'1',1.1196613311767578,1.1196613311767578,0.0,8.0
Anger,stimuli/06F_AN_O.bmp,stimuli/15F_AN_O.BMP,stimuli/06F_AN_O.bmp,stimuli/EmptyFrame.bmp,stimuli/RedFrame.bmp,2,Anger,Female,3,1,1.0,51.28738784790039,51.28738784790039,0.0,55.22314453125,55.22314453125,0.0,54.23365020751953,54.23365020751953,0.0,1.0,1.0,0.0,'2',1.1360403299331665,1.1360403299331665,0.0,9.0
Anger,stimuli/24M_AN_O.BMP,stimuli/24M_AN_O.BMP,stimuli/30M_AN_O.BMP,stimuli/EmptyFrame.bmp,stimuli/RedFrame.bmp,1,Anger,Male,3,1,1.0,55.25783920288086,55.25783920288086,0.0,59.236576080322266,59.236576080322266,0.0,58.25818634033203,58.25818634033203,0.0,1.0,1.0,0.0,'1',1.007745385169983,1.007745385169983,0.0,10.0
MatchShape,stimuli/MatchShapes.bmp,stimuli/EmptyFace.bmp,stimuli/EmptyFace.bmp,stimuli/EmptyFrame.bmp,stimuli/EmptyFrame.bmp,Null,None,None,3,1,1.0,59.262535095214844,59.262535095214844,0.0,63.2386474609375,63.2386474609375,0.0,62.26687240600586,62.26687240600586,0.0,0.0,0.0,0.0,,,,,11.0
Shape,stimuli/horizontal.bmp,stimuli/horizontal.bmp,stimuli/circle.bmp,stimuli/EmptyFrame.bmp,stimuli/RedFrame.bmp,1,Shape,None,3,1,1.0,63.27342987060547,63.27342987060547,0.0,67.25704193115234,67.25704193115234,0.0,66.26154327392578,66.26154327392578,0.0,1.0,1.0,0.0,'1',0.9178023934364319,0.9178023934364319,0.0,12.0
Shape,stimuli/vertical.bmp,stimuli/horizontal.bmp,stimuli/vertical.bmp,stimuli/EmptyFrame.bmp,stimuli/RedFrame.bmp,2,Shape,None,3,1,1.0,67.28211212158203,67.28211212158203,0.0,71.2666015625,71.2666015625,0.0,70.28112030029297,70.28112030029297,0.0,1.0,1.0,0.0,'2',1.2353614568710327,1.2353614568710327,0.0,13.0
Shape,stimuli/horizontal.bmp,stimuli/horizontal.bmp,stimuli/vertical.bmp,stimuli/EmptyFrame.bmp,stimuli/RedFrame.bmp,1,Shape,None,3,1,1.0,71.29029846191406,71.29029846191406,0.0,75.28427124023438,75.28427124023438,0.0,74.290283203125,74.290283203125,0.0,1.0,1.0,0.0,'1',0.8950058221817017,0.8950058221817017,0.0,14.0
Shape,stimuli/horizontal.bmp,stimuli/circle.bmp,stimuli/horizontal.bmp,stimuli/EmptyFrame.bmp,stimuli/RedFrame.bmp,2,Shape,None,3,1,1.0,75.30549621582031,75.30549621582031,0.0,79.3060073852539,79.3060073852539,0.0,78.31753540039062,78.31753540039062,0.0,0.0,0.0,0.0,'1',0.9754425287246704,0.9754425287246704,0.0,15.0
Shape,stimuli/circle.bmp,stimuli/circle.bmp,stimuli/vertical.bmp,stimuli/EmptyFrame.bmp,stimuli/RedFrame.bmp,1,Shape,None,3,1,1.0,79.33043670654297,79.33043670654297,0.0,83.32427978515625,83.32427978515625,0.0,82.34284210205078,82.34284210205078,0.0,1.0,1.0,0.0,'1',1.3327014446258545,1.3327014446258545,0.0,16.0
Shape,stimuli/circle.bmp,stimuli/circle.bmp,stimuli/horizontal.bmp,stimuli/EmptyFrame.bmp,stimuli/RedFrame.bmp,1,Shape,None,3,1,1.0,83.34964752197266,83.34964752197266,0.0,87.335693359375,87.335693359375,0.0,86.35953521728516,86.35953521728516,0.0,1.0,1.0,0.0,'1',0.8632596731185913,0.8632596731185913,0.0,17.0
Shape,stimuli/vertical.bmp,stimuli/circle.bmp,stimuli/vertical.bmp,stimuli/EmptyFrame.bmp,stimuli/RedFrame.bmp,2,Shape,None,3,1,1.0,87.35877227783203,87.35877227783203,0.0,91.35259246826172,91.35259246826172,0.0,90.36784362792969,90.36784362792969,0.0,1.0,1.0,0.0,'2',1.0870505571365356,1.0870505571365356,0.0,18.0
Shape,stimuli/circle.bmp,stimuli/vertical.bmp,stimuli/circle.bmp,stimuli/EmptyFrame.bmp,stimuli/RedFrame.bmp,2,Shape,None,3,1,1.0,91.37652587890625,91.37652587890625,0.0,95.37010192871094,95.37010192871094,0.0,94.38204193115234,94.38204193115234,0.0,1.0,1.0,0.0,'2',2.891317844390869,2.891317844390869,0.0,19.0
Shape,stimuli/vertical.bmp,stimuli/horizontal.bmp,stimuli/vertical.bmp,stimuli/EmptyFrame.bmp,stimuli/RedFrame.bmp,2,Shape,None,3,1,1.0,95.39369201660156,95.39369201660156,0.0,99.3848648071289,99.3848648071289,0.0,98.39322662353516,98.39322662353516,0.0,1.0,1.0,0.0,'2',1.718640923500061,1.718640923500061,0.0,20.0
Shape,stimuli/vertical.bmp,stimuli/vertical.bmp,stimuli/circle.bmp,stimuli/EmptyFrame.bmp,stimuli/RedFrame.bmp,1,Shape,None,3,1,1.0,99.40824127197266,99.40824127197266,0.0,103.40067291259766,103.40067291259766,0.0,102.41546630859375,102.41546630859375,0.0,1.0,1.0,0.0,'1',0.9204071164131165,0.9204071164131165,0.0,21.0
MatchFaces,stimuli/MatchFaces.bmp,stimuli/EmptyFace.bmp,stimuli/EmptyFace.bmp,stimuli/EmptyFrame.bmp,stimuli/EmptyFrame.bmp,Null,None,None,3,1,1.0,103.59227752685547,103.59227752685547,0.0,107.41230010986328,107.41230010986328,0.0,106.42919158935547,106.42919158935547,0.0,0.0,0.0,0.0,,,,,22.0
Neutral,stimuli/20M_NE_C.BMP,stimuli/21M_NE_C.BMP,stimuli/20M_NE_C.BMP,stimuli/EmptyFrame.bmp,stimuli/RedFrame.bmp,2,Neutral,Male,3,1,1.0,107.55205535888672,107.55205535888672,0.0,111.45452880859375,111.45452880859375,0.0,110.46961212158203,110.46961212158203,0.0,1.0,1.0,0.0,'2',1.179438591003418,1.179438591003418,0.0,23.0
Neutral,stimuli/01F_NE_C.bmp,stimuli/01F_NE_C.bmp,stimuli/02F_NE_C.bmp,stimuli/EmptyFrame.bmp,stimuli/RedFrame.bmp,1,Neutral,Female,3,1,1.0,111.51922607421875,111.51922607421875,0.0,115.46585845947266,115.46585845947266,0.0,114.48279571533203,114.48279571533203,0.0,1.0,1.0,0.0,'1',1.4377537965774536,1.4377537965774536,0.0,24.0
Neutral,stimuli/22M_NE_C.BMP,stimuli/23M_NE_C.BMP,stimuli/22M_NE_C.BMP,stimuli/EmptyFrame.bmp,stimuli/RedFrame.bmp,2,Neutral,Male,3,1,1.0,115.50065612792969,115.50065612792969,0.0,119.48191833496094,119.48191833496094,0.0,118.4931640625,118.4931640625,0.0,1.0,1.0,0.0,'2',1.6022460460662842,1.6022460460662842,0.0,25.0
Neutral,stimuli/24M_NE_C.BMP,stimuli/24M_NE_C.BMP,stimuli/25M_NE_C.BMP,stimuli/EmptyFrame.bmp,stimuli/RedFrame.bmp,1,Neutral,Male,3,1,1.0,119.50946807861328,119.50946807861328,0.0,123.50121307373047,123.50121307373047,0.0,122.51948547363281,122.51948547363281,0.0,1.0,1.0,0.0,'1',1.731386423110962,1.731386423110962,0.0,26.0
Neutral,stimuli/03F_NE_C.bmp,stimuli/05F_NE_C.bmp,stimuli/03F_NE_C.bmp,stimuli/EmptyFrame.bmp,stimuli/RedFrame.bmp,2,Neutral,Female,3,1,1.0,123.56380462646484,123.56380462646484,0.0,127.51889038085938,127.51889038085938,0.0,126.54011535644531,126.54011535644531,0.0,1.0,1.0,0.0,'2',2.1490395069122314,2.1490395069122314,0.0,27.0
Neutral,stimuli/26M_NE_C.BMP,stimuli/26M_NE_C.BMP,stimuli/27M_NE_C.BMP,stimuli/EmptyFrame.bmp,stimuli/RedFrame.bmp,1,Neutral,Male,3,1,1.0,127.54542541503906,127.54542541503906,0.0,131.53604125976562,131.53604125976562,0.0,130.53944396972656,130.53944396972656,0.0,1.0,1.0,0.0,'1',1.0707595348358154,1.0707595348358154,0.0,28.0
Neutral,stimuli/06F_NE_C.bmp,stimuli/07F_NE_C.BMP,stimuli/06F_NE_C.bmp,stimuli/EmptyFrame.bmp,stimuli/RedFrame.bmp,2,Neutral,Female,3,1,1.0,131.5634765625,131.5634765625,0.0,135.5531768798828,135.5531768798828,0.0,134.56112670898438,134.56112670898438,0.0,1.0,1.0,0.0,'2',1.276597499847412,1.276597499847412,0.0,29.0
Neutral,stimuli/08F_NE_C.BMP,stimuli/08F_NE_C.BMP,stimuli/09F_NE_C.BMP,stimuli/EmptyFrame.bmp,stimuli/RedFrame.bmp,1,Neutral,Female,3,1,1.0,135.58407592773438,135.58407592773438,0.0,139.56927490234375,139.56927490234375,0.0,138.58697509765625,138.58697509765625,0.0,1.0,1.0,0.0,'1',0.994963526725769,0.994963526725769,0.0,30.0
Neutral,stimuli/28M_NE_C.BMP,stimuli/29M_NE_C.BMP,stimuli/28M_NE_C.BMP,stimuli/EmptyFrame.bmp,stimuli/RedFrame.bmp,2,Neutral,Male,3,1,1.0,139.5982666015625,139.5982666015625,0.0,143.58457946777344,143.58457946777344,0.0,142.6007843017578,142.6007843017578,0.0,1.0,1.0,0.0,'2',0.9351130127906799,0.9351130127906799,0.0,31.0
Neutral,stimuli/10F_NE_C.BMP,stimuli/10F_NE_C.BMP,stimuli/06F_NE_C.bmp,stimuli/EmptyFrame.bmp,stimuli/RedFrame.bmp,1,Neutral,Female,3,1,1.0,143.61026000976562,143.61026000976562,0.0,147.60414123535156,147.60414123535156,0.0,146.61276245117188,146.61276245117188,0.0,1.0,1.0,0.0,'1',1.0473753213882446,1.0473753213882446,0.0,32.0
MatchFaces,stimuli/MatchFaces.bmp,stimuli/EmptyFace.bmp,stimuli/EmptyFace.bmp,stimuli/EmptyFrame.bmp,stimuli/EmptyFrame.bmp,Null,None,None,3,1,1.0,147.8857421875,147.8857421875,0.0,151.6055450439453,151.6055450439453,0.0,150.619384765625,150.619384765625,0.0,0.0,0.0,0.0,,,,,33.0
Fear,stimuli/07F_FE_O.BMP,stimuli/07F_FE_O.BMP,stimuli/14F_FE_O.BMP,stimuli/EmptyFrame.bmp,stimuli/RedFrame.bmp,1,Fear,Female,3,1,1.0,151.6783905029297,151.6783905029297,0.0,155.62786865234375,155.62786865234375,0.0,154.6426239013672,154.6426239013672,0.0,1.0,1.0,0.0,'1',0.8746792078018188,0.8746792078018188,0.0,34.0
Fear,stimuli/25M_FE_O.BMP,stimuli/29M_FE_O.BMP,stimuli/25M_FE_O.BMP,stimuli/EmptyFrame.bmp,stimuli/RedFrame.bmp,2,Fear,Male,3,1,1.0,155.6562957763672,155.6562957763672,0.0,159.6458282470703,159.6458282470703,0.0,158.65357971191406,158.65357971191406,0.0,1.0,1.0,0.0,'2',1.2470372915267944,1.2470372915267944,0.0,35.0
Fear,stimuli/26M_FE_O.BMP,stimuli/26M_FE_O.BMP,stimuli/28M_FE_O.BMP,stimuli/EmptyFrame.bmp,stimuli/RedFrame.bmp,1,Fear,Male,3,1,1.0,159.66949462890625,159.66949462890625,0.0,163.66427612304688,163.66427612304688,0.0,162.66954040527344,162.66954040527344,0.0,1.0,1.0,0.0,'1',1.1231505870819092,1.1231505870819092,0.0,36.0
Fear,stimuli/08F_FE_O.BMP,stimuli/13F_FE_O.BMP,stimuli/08F_FE_O.BMP,stimuli/EmptyFrame.bmp,stimuli/RedFrame.bmp,2,Fear,Female,3,1,1.0,163.69122314453125,163.69122314453125,0.0,167.68515014648438,167.68515014648438,0.0,166.6940155029297,166.6940155029297,0.0,1.0,1.0,0.0,'2',1.0869133472442627,1.0869133472442627,0.0,37.0
Fear,stimuli/09F_FE_O.BMP,stimuli/09F_FE_O.BMP,stimuli/12F_FE_O.BMP,stimuli/EmptyFrame.bmp,stimuli/RedFrame.bmp,1,Fear,Female,3,1,1.0,167.7167510986328,167.7167510986328,0.0,171.70053100585938,171.70053100585938,0.0,170.7196807861328,170.7196807861328,0.0,1.0,1.0,0.0,'1',0.8145890831947327,0.8145890831947327,0.0,38.0
Fear,stimuli/27M_FE_O.BMP,stimuli/26M_FE_O.BMP,stimuli/27M_FE_O.BMP,stimuli/EmptyFrame.bmp,stimuli/RedFrame.bmp,2,Fear,Male,3,1,1.0,171.72686767578125,171.72686767578125,0.0,175.72140502929688,175.72140502929688,0.0,174.7229766845703,174.7229766845703,0.0,1.0,1.0,0.0,'2',0.8633590936660767,0.8633590936660767,0.0,39.0
Fear,stimuli/28M_FE_O.BMP,stimuli/28M_FE_O.BMP,stimuli/25M_FE_O.BMP,stimuli/EmptyFrame.bmp,stimuli/RedFrame.bmp,1,Fear,Male,3,1,1.0,175.74380493164062,175.74380493164062,0.0,179.73849487304688,179.73849487304688,0.0,178.7490692138672,178.7490692138672,0.0,1.0,1.0,0.0,'1',0.9369931221008301,0.9369931221008301,0.0,40.0
Fear,stimuli/10F_FE_O.BMP,stimuli/11F_FE_O.BMP,stimuli/10F_FE_O.BMP,stimuli/EmptyFrame.bmp,stimuli/RedFrame.bmp,2,Fear,Female,3,1,1.0,179.7639923095703,179.7639923095703,0.0,183.75433349609375,183.75433349609375,0.0,182.7637176513672,182.7637176513672,0.0,1.0,1.0,0.0,'2',0.8414793014526367,0.8414793014526367,0.0,41.0
Fear,stimuli/29M_FE_O.BMP,stimuli/29M_FE_O.BMP,stimuli/24M_FE_O.BMP,stimuli/EmptyFrame.bmp,stimuli/RedFrame.bmp,1,Fear,Male,3,1,1.0,183.7879180908203,183.7879180908203,0.0,187.76776123046875,187.76776123046875,0.0,186.78135681152344,186.78135681152344,0.0,1.0,1.0,0.0,'1',0.9844803810119629,0.9844803810119629,0.0,42.0
Fear,stimuli/11F_FE_O.BMP,stimuli/10F_FE_O.BMP,stimuli/11F_FE_O.BMP,stimuli/EmptyFrame.bmp,stimuli/RedFrame.bmp,2,Fear,Female,3,1,1.0,187.7900848388672,187.7900848388672,0.0,191.7904052734375,191.7904052734375,0.0,190.80123901367188,190.80123901367188,0.0,1.0,1.0,0.0,'2',1.0783772468566895,1.0783772468566895,0.0,43.0
MatchFaces,stimuli/MatchFaces.bmp,stimuli/EmptyFace.bmp,stimuli/EmptyFace.bmp,stimuli/EmptyFrame.bmp,stimuli/EmptyFrame.bmp,Null,None,None,3,1,1.0,192.10438537597656,192.10438537597656,0.0,195.79576110839844,195.79576110839844,0.0,194.80006408691406,194.80006408691406,0.0,0.0,0.0,0.0,,,,,44.0
Happy,stimuli/19F_HA_O.BMP,stimuli/19F_HA_O.BMP,stimuli/18F_HA_O.BMP,stimuli/EmptyFrame.bmp,stimuli/RedFrame.bmp,1,Happy,Female,3,1,1.0,195.8668212890625,195.8668212890625,0.0,199.81898498535156,199.81898498535156,0.0,198.83090209960938,198.83090209960938,0.0,1.0,1.0,0.0,'1',0.7639874815940857,0.7639874815940857,0.0,45.0
Happy,stimuli/17F_HA_O.BMP,stimuli/16F_HA_O.BMP,stimuli/17F_HA_O.BMP,stimuli/EmptyFrame.bmp,stimuli/RedFrame.bmp,2,Happy,Female,3,1,1.0,199.84774780273438,199.84774780273438,0.0,203.83897399902344,203.83897399902344,0.0,202.85337829589844,202.85337829589844,0.0,1.0,1.0,0.0,'2',1.0945323705673218,1.0945323705673218,0.0,46.0
Happy,stimuli/43M_HA_O.BMP,stimuli/42M_HA_O.BMP,stimuli/43M_HA_O.BMP,stimuli/EmptyFrame.bmp,stimuli/RedFrame.bmp,2,Happy,Male,3,1,1.0,203.86680603027344,203.86680603027344,0.0,207.85244750976562,207.85244750976562,0.0,206.86676025390625,206.86676025390625,0.0,1.0,1.0,0.0,'2',1.0282435417175293,1.0282435417175293,0.0,47.0
Happy,stimuli/41M_HA_O.BMP,stimuli/41M_HA_O.BMP,stimuli/40M_HA_O.BMP,stimuli/EmptyFrame.bmp,stimuli/RedFrame.bmp,1,Happy,Male,3,1,1.0,207.8784942626953,207.8784942626953,0.0,211.8741912841797,211.8741912841797,0.0,210.89588928222656,210.89588928222656,0.0,1.0,1.0,0.0,'1',1.0353319644927979,1.0353319644927979,0.0,48.0
Happy,stimuli/15F_HA_O.BMP,stimuli/15F_HA_O.BMP,stimuli/14F_HA_O.BMP,stimuli/EmptyFrame.bmp,stimuli/RedFrame.bmp,1,Happy,Female,3,1,1.0,211.8984832763672,211.8984832763672,0.0,215.8939666748047,215.8939666748047,0.0,214.8988800048828,214.8988800048828,0.0,1.0,1.0,0.0,'1',1.1667388677597046,1.1667388677597046,0.0,49.0
Happy,stimuli/13F_HA_O.BMP,stimuli/13F_HA_O.BMP,stimuli/12F_HA_O.BMP,stimuli/EmptyFrame.bmp,stimuli/RedFrame.bmp,1,Happy,Female,3,1,1.0,215.92385864257812,215.92385864257812,0.0,219.910888671875,219.910888671875,0.0,218.928955078125,218.928955078125,0.0,1.0,1.0,0.0,'1',0.8375859260559082,0.8375859260559082,0.0,50.0
Happy,stimuli/39M_HA_O.BMP,stimuli/38M_HA_O.BMP,stimuli/39M_HA_O.BMP,stimuli/EmptyFrame.bmp,stimuli/RedFrame.bmp,2,Happy,Male,3,1,1.0,219.93675231933594,219.93675231933594,0.0,223.92538452148438,223.92538452148438,0.0,222.93682861328125,222.93682861328125,0.0,1.0,1.0,0.0,'2',0.8983911871910095,0.8983911871910095,0.0,51.0
Happy,stimuli/37M_HA_O.BMP,stimuli/37M_HA_O.BMP,stimuli/36M_HA_O.BMP,stimuli/EmptyFrame.bmp,stimuli/RedFrame.bmp,1,Happy,Male,3,1,1.0,223.952392578125,223.952392578125,0.0,227.94883728027344,227.94883728027344,0.0,226.95181274414062,226.95181274414062,0.0,1.0,1.0,0.0,'1',1.5426846742630005,1.5426846742630005,0.0,52.0
Happy,stimuli/35M_HA_O.BMP,stimuli/34M_HA_O.BMP,stimuli/35M_HA_O.BMP,stimuli/EmptyFrame.bmp,stimuli/RedFrame.bmp,2,Happy,Male,3,1,1.0,227.97653198242188,227.97653198242188,0.0,231.9639892578125,231.9639892578125,0.0,230.98797607421875,230.98797607421875,0.0,1.0,1.0,0.0,'2',1.0458922386169434,1.0458922386169434,0.0,53.0
Happy,stimuli/11F_HA_O.BMP,stimuli/10F_HA_O.BMP,stimuli/11F_HA_O.BMP,stimuli/EmptyFrame.bmp,stimuli/RedFrame.bmp,2,Happy,Female,3,1,1.0,231.9929656982422,231.9929656982422,0.0,235.98880004882812,235.98880004882812,0.0,235.01132202148438,235.01132202148438,0.0,1.0,1.0,0.0,'2',1.0958150625228882,1.0958150625228882,0.0,54.0
Match Shape,stimuli/MatchShapes.bmp,stimuli/EmptyFace.bmp,stimuli/EmptyFace.bmp,stimuli/EmptyFrame.bmp,stimuli/EmptyFrame.bmp,Null,None,None,3,1,1.0,236.0120849609375,236.0120849609375,0.0,239.99462890625,239.99462890625,0.0,238.99717712402344,238.99717712402344,0.0,0.0,0.0,0.0,,,,,55.0
Shape,stimuli/circle.bmp,stimuli/vertical.bmp,stimuli/circle.bmp,stimuli/EmptyFrame.bmp,stimuli/RedFrame.bmp,2,Shape,None,3,1,1.0,240.03125,240.03125,0.0,244.01834106445312,244.01834106445312,0.0,243.02464294433594,243.02464294433594,0.0,1.0,1.0,0.0,'2',0.9787421822547913,0.9787421822547913,0.0,56.0
Shape,stimuli/horizontal.bmp,stimuli/circle.bmp,stimuli/horizontal.bmp,stimuli/EmptyFrame.bmp,stimuli/RedFrame.bmp,2,Shape,None,3,1,1.0,244.04615783691406,244.04615783691406,0.0,248.0411834716797,248.0411834716797,0.0,247.05186462402344,247.05186462402344,0.0,1.0,1.0,0.0,'2',1.5212970972061157,1.5212970972061157,0.0,57.0
Shape,stimuli/vertical.bmp,stimuli/vertical.bmp,stimuli/horizontal.bmp,stimuli/EmptyFrame.bmp,stimuli/RedFrame.bmp,1,Shape,None,3,1,1.0,248.06077575683594,248.06077575683594,0.0,252.0618896484375,252.0618896484375,0.0,251.07403564453125,251.07403564453125,0.0,1.0,1.0,0.0,'1',1.28765070438385,1.28765070438385,0.0,58.0
Shape,stimuli/horizontal.bmp,stimuli/circle.bmp,stimuli/horizontal.bmp,stimuli/EmptyFrame.bmp,stimuli/RedFrame.bmp,2,Shape,None,3,1,1.0,252.08192443847656,252.08192443847656,0.0,256.07489013671875,256.07489013671875,0.0,255.10557556152344,255.10557556152344,0.0,1.0,1.0,0.0,'2',1.3514126539230347,1.3514126539230347,0.0,59.0
Shape,stimuli/horizontal.bmp,stimuli/horizontal.bmp,stimuli/vertical.bmp,stimuli/EmptyFrame.bmp,stimuli/RedFrame.bmp,1,Shape,None,3,1,1.0,256.0991516113281,256.0991516113281,0.0,260.08660888671875,260.08660888671875,0.0,259.1080322265625,259.1080322265625,0.0,1.0,1.0,0.0,'1',0.6991884112358093,0.6991884112358093,0.0,60.0
Shape,stimuli/vertical.bmp,stimuli/vertical.bmp,stimuli/circle.bmp,stimuli/EmptyFrame.bmp,stimuli/RedFrame.bmp,1,Shape,None,3,1,1.0,260.1099853515625,260.1099853515625,0.0,264.10333251953125,264.10333251953125,0.0,263.11553955078125,263.11553955078125,0.0,1.0,1.0,0.0,'1',0.7879356741905212,0.7879356741905212,0.0,61.0
Shape,stimuli/circle.bmp,stimuli/horizontal.bmp,stimuli/circle.bmp,stimuli/EmptyFrame.bmp,stimuli/RedFrame.bmp,2,Shape,None,3,1,1.0,264.1236267089844,264.1236267089844,0.0,268.12158203125,268.12158203125,0.0,267.1231994628906,267.1231994628906,0.0,1.0,1.0,0.0,'2',0.9913190007209778,0.9913190007209778,0.0,62.0
Shape,stimuli/circle.bmp,stimuli/vertical.bmp,stimuli/circle.bmp,stimuli/EmptyFrame.bmp,stimuli/RedFrame.bmp,2,Shape,None,3,1,1.0,268.143798828125,268.143798828125,0.0,272.13970947265625,272.13970947265625,0.0,271.1557922363281,271.1557922363281,0.0,1.0,1.0,0.0,'2',0.880522608757019,0.880522608757019,0.0,63.0
Shape,stimuli/vertical.bmp,stimuli/vertical.bmp,stimuli/horizontal.bmp,stimuli/EmptyFrame.bmp,stimuli/RedFrame.bmp,1,Shape,None,3,1,1.0,272.1591491699219,272.1591491699219,0.0,276.15533447265625,276.15533447265625,0.0,275.1875305175781,275.1875305175781,0.0,1.0,1.0,0.0,'1',0.9416558146476746,0.9416558146476746,0.0,64.0
Shape,stimuli/horizontal.bmp,stimuli/horizontal.bmp,stimuli/circle.bmp,stimuli/EmptyFrame.bmp,stimuli/RedFrame.bmp,1,Shape,None,3,1,1.0,276.1773376464844,276.1773376464844,0.0,280.1771545410156,280.1771545410156,0.0,279.1880798339844,279.1880798339844,0.0,1.0,1.0,0.0,'1',0.9940006732940674,0.9940006732940674,0.0,65.0
MatchFaces,stimuli/MatchFaces.bmp,stimuli/EmptyFace.bmp,stimuli/EmptyFace.bmp,stimuli/EmptyFrame.bmp,stimuli/EmptyFrame.bmp,Null,None,None,3,1,1.0,280.5233154296875,280.5233154296875,0.0,284.1907653808594,284.1907653808594,0.0,283.1883850097656,283.1883850097656,0.0,0.0,0.0,0.0,,,,,66.0
Anger,stimuli/42M_AN_O.BMP,stimuli/42M_AN_O.BMP,stimuli/43M_AN_O.BMP,stimuli/EmptyFrame.bmp,stimuli/RedFrame.bmp,1,Anger,Male,3,1,1.0,284.29730224609375,284.29730224609375,0.0,288.209228515625,288.209228515625,0.0,287.22637939453125,287.22637939453125,0.0,1.0,1.0,0.0,'1',0.8518587946891785,0.8518587946891785,0.0,67.0
Anger,stimuli/07F_AN_O.BMP,stimuli/07F_AN_O.BMP,stimuli/14F_AN_O.BMP,stimuli/EmptyFrame.bmp,stimuli/RedFrame.bmp,1,Anger,Female,3,1,1.0,288.2361145019531,288.2361145019531,0.0,292.228515625,292.228515625,0.0,291.2426452636719,291.2426452636719,0.0,1.0,1.0,0.0,'1',1.0211708545684814,1.0211708545684814,0.0,68.0
Anger,stimuli/40M_AN_O.BMP,stimuli/41M_AN_O.BMP,stimuli/40M_AN_O.BMP,stimuli/EmptyFrame.bmp,stimuli/RedFrame.bmp,2,Anger,Male,3,1,1.0,292.2938537597656,292.2938537597656,0.0,296.24639892578125,296.24639892578125,0.0,295.267822265625,295.267822265625,0.0,1.0,1.0,0.0,'2',1.148384690284729,1.148384690284729,0.0,69.0
Anger,stimuli/38M_AN_O.BMP,stimuli/39M_AN_O.BMP,stimuli/38M_AN_O.BMP,stimuli/EmptyFrame.bmp,stimuli/RedFrame.bmp,2,Anger,Male,3,1,1.0,296.275146484375,296.275146484375,0.0,300.2591552734375,300.2591552734375,0.0,299.2835693359375,299.2835693359375,0.0,1.0,1.0,0.0,'2',1.3084678649902344,1.3084678649902344,0.0,70.0
Anger,stimuli/08F_AN_O.BMP,stimuli/08F_AN_O.BMP,stimuli/13F_AN_O.BMP,stimuli/EmptyFrame.bmp,stimuli/RedFrame.bmp,1,Anger,Female,3,1,1.0,300.2893371582031,300.2893371582031,0.0,304.27618408203125,304.27618408203125,0.0,303.29229736328125,303.29229736328125,0.0,1.0,1.0,0.0,'1',0.9685860872268677,0.9685860872268677,0.0,71.0
Anger,stimuli/36M_AN_O.BMP,stimuli/37M_AN_O.BMP,stimuli/36M_AN_O.BMP,stimuli/EmptyFrame.bmp,stimuli/RedFrame.bmp,2,Anger,Male,3,1,1.0,304.3036804199219,304.3036804199219,0.0,308.29388427734375,308.29388427734375,0.0,307.3114929199219,307.3114929199219,0.0,1.0,1.0,0.0,'2',1.4047081470489502,1.4047081470489502,0.0,72.0
Anger,stimuli/09F_AN_O.BMP,stimuli/12F_AN_O.BMP,stimuli/09F_AN_O.BMP,stimuli/EmptyFrame.bmp,stimuli/RedFrame.bmp,2,Anger,Female,3,1,1.0,308.3272399902344,308.3272399902344,0.0,312.3040466308594,312.3040466308594,0.0,311.3207092285156,311.3207092285156,0.0,1.0,1.0,0.0,'2',0.8396109938621521,0.8396109938621521,0.0,73.0
Anger,stimuli/34M_AN_O.BMP,stimuli/35M_AN_O.BMP,stimuli/34M_AN_O.BMP,stimuli/EmptyFrame.bmp,stimuli/RedFrame.bmp,2,Anger,Male,3,1,1.0,312.3319091796875,312.3319091796875,0.0,316.3232421875,316.3232421875,0.0,315.34716796875,315.34716796875,0.0,1.0,1.0,0.0,'2',0.9349352717399597,0.9349352717399597,0.0,74.0
Anger,stimuli/10F_AN_O.BMP,stimuli/10F_AN_O.BMP,stimuli/11F_AN_O.BMP,stimuli/EmptyFrame.bmp,stimuli/RedFrame.bmp,1,Anger,Female,3,1,1.0,316.35162353515625,316.35162353515625,0.0,320.3415832519531,320.3415832519531,0.0,319.35125732421875,319.35125732421875,0.0,1.0,1.0,0.0,'1',0.6339172720909119,0.6339172720909119,0.0,75.0
Anger,stimuli/12F_AN_O.BMP,stimuli/12F_AN_O.BMP,stimuli/13F_AN_O.BMP,stimuli/EmptyFrame.bmp,stimuli/RedFrame.bmp,1,Anger,Female,3,1,1.0,320.3660888671875,320.3660888671875,0.0,324.3604431152344,324.3604431152344,0.0,323.3710632324219,323.3710632324219,0.0,1.0,1.0,0.0,'1',1.0125001668930054,1.0125001668930054,0.0,76.0
MatchFaces,stimuli/MatchFaces.bmp,stimuli/EmptyFace.bmp,stimuli/EmptyFace.bmp,stimuli/EmptyFrame.bmp,stimuli/EmptyFrame.bmp,Null,None,None,3,1,1.0,324.67730712890625,324.67730712890625,0.0,328.3661804199219,328.3661804199219,0.0,327.3768005371094,327.3768005371094,0.0,0.0,0.0,0.0,,,,,77.0
Happy,stimuli/20M_HA_O.BMP,stimuli/21M_HA_O.BMP,stimuli/20M_HA_O.BMP,stimuli/EmptyFrame.bmp,stimuli/RedFrame.bmp,2,Happy,Male,3,1,1.0,328.443603515625,328.443603515625,0.0,332.3778991699219,332.3778991699219,0.0,331.3978576660156,331.3978576660156,0.0,1.0,1.0,0.0,'2',1.1239296197891235,1.1239296197891235,0.0,78.0
Happy,stimuli/01F_HA_O.bmp,stimuli/01F_HA_O.bmp,stimuli/02F_HA_O.bmp,stimuli/EmptyFrame.bmp,stimuli/RedFrame.bmp,1,Happy,Female,3,1,1.0,332.44451904296875,332.44451904296875,0.0,336.38775634765625,336.38775634765625,0.0,335.41607666015625,335.41607666015625,0.0,1.0,1.0,0.0,'1',1.5225098133087158,1.5225098133087158,0.0,79.0
Happy,stimuli/22M_HA_O.BMP,stimuli/23M_HA_O.BMP,stimuli/22M_HA_O.BMP,stimuli/EmptyFrame.bmp,stimuli/RedFrame.bmp,2,Happy,Male,3,1,1.0,336.4199523925781,336.4199523925781,0.0,340.40301513671875,340.40301513671875,0.0,339.4272155761719,339.4272155761719,0.0,1.0,1.0,0.0,'2',1.0455536842346191,1.0455536842346191,0.0,80.0
Happy,stimuli/24M_HA_O.BMP,stimuli/24M_HA_O.BMP,stimuli/25M_HA_O.BMP,stimuli/EmptyFrame.bmp,stimuli/RedFrame.bmp,1,Happy,Male,3,1,1.0,340.4303283691406,340.4303283691406,0.0,344.4149169921875,344.4149169921875,0.0,343.4273681640625,343.4273681640625,0.0,1.0,1.0,0.0,'1',0.9103695154190063,0.9103695154190063,0.0,81.0
Happy,stimuli/03F_HA_O.bmp,stimuli/05F_HA_O.bmp,stimuli/03F_HA_O.bmp,stimuli/EmptyFrame.bmp,stimuli/RedFrame.bmp,2,Happy,Female,3,1,1.0,344.4421691894531,344.4421691894531,0.0,348.43157958984375,348.43157958984375,0.0,347.4444885253906,347.4444885253906,0.0,1.0,1.0,0.0,'2',1.081460952758789,1.081460952758789,0.0,82.0
Happy,stimuli/26M_HA_O.BMP,stimuli/26M_HA_O.BMP,stimuli/27M_HA_O.BMP,stimuli/EmptyFrame.bmp,stimuli/RedFrame.bmp,1,Happy,Male,3,1,1.0,348.45794677734375,348.45794677734375,0.0,352.4443054199219,352.4443054199219,0.0,351.45867919921875,351.45867919921875,0.0,1.0,1.0,0.0,'1',0.9831629991531372,0.9831629991531372,0.0,83.0
Happy,stimuli/06F_HA_O.bmp,stimuli/07F_HA_O.BMP,stimuli/06F_HA_O.bmp,stimuli/EmptyFrame.bmp,stimuli/RedFrame.bmp,2,Happy,Female,3,1,1.0,352.49627685546875,352.49627685546875,0.0,356.4603271484375,356.4603271484375,0.0,355.4747619628906,355.4747619628906,0.0,1.0,1.0,0.0,'2',1.1661068201065063,1.1661068201065063,0.0,84.0
Happy,stimuli/08F_HA_O.BMP,stimuli/08F_HA_O.BMP,stimuli/09F_HA_O.BMP,stimuli/EmptyFrame.bmp,stimuli/RedFrame.bmp,1,Happy,Female,3,1,1.0,356.4840393066406,356.4840393066406,0.0,360.4794006347656,360.4794006347656,0.0,359.48895263671875,359.48895263671875,0.0,1.0,1.0,0.0,'1',0.8210505843162537,0.8210505843162537,0.0,85.0
Happy,stimuli/28M_HA_O.BMP,stimuli/29M_HA_O.BMP,stimuli/28M_HA_O.BMP,stimuli/EmptyFrame.bmp,stimuli/RedFrame.bmp,2,Happy,Male,3,1,1.0,360.50408935546875,360.50408935546875,0.0,364.49798583984375,364.49798583984375,0.0,363.5048522949219,363.5048522949219,0.0,1.0,1.0,0.0,'2',0.7934796810150146,0.7934796810150146,0.0,86.0
Happy,stimuli/10F_HA_O.BMP,stimuli/10F_HA_O.BMP,stimuli/06F_HA_O.bmp,stimuli/EmptyFrame.bmp,stimuli/RedFrame.bmp,1,Happy,Female,3,1,1.0,364.5232238769531,364.5232238769531,0.0,368.51519775390625,368.51519775390625,0.0,367.5357666015625,367.5357666015625,0.0,1.0,1.0,0.0,'1',0.884000301361084,0.884000301361084,0.0,87.0
MatchFaces,stimuli/MatchFaces.bmp,stimuli/EmptyFace.bmp,stimuli/EmptyFace.bmp,stimuli/EmptyFrame.bmp,stimuli/EmptyFrame.bmp,Null,None,None,3,1,1.0,368.77764892578125,368.77764892578125,0.0,372.5279846191406,372.5279846191406,0.0,371.532958984375,371.532958984375,0.0,0.0,0.0,0.0,,,,,88.0
Neutral,stimuli/07F_NE_C.BMP,stimuli/07F_NE_C.BMP,stimuli/14F_NE_C.BMP,stimuli/EmptyFrame.bmp,stimuli/RedFrame.bmp,1,Neutral,Female,3,1,1.0,372.6151123046875,372.6151123046875,0.0,376.5513610839844,376.5513610839844,0.0,375.5535583496094,375.5535583496094,0.0,1.0,1.0,0.0,'1',1.1015530824661255,1.1015530824661255,0.0,89.0
Neutral,stimuli/25M_NE_C.BMP,stimuli/29M_NE_C.BMP,stimuli/25M_NE_C.BMP,stimuli/EmptyFrame.bmp,stimuli/RedFrame.bmp,2,Neutral,Male,3,1,1.0,376.575439453125,376.575439453125,0.0,380.5732727050781,380.5732727050781,0.0,379.5810852050781,379.5810852050781,0.0,1.0,1.0,0.0,'2',0.6971582770347595,0.6971582770347595,0.0,90.0
Neutral,stimuli/26M_NE_C.BMP,stimuli/26M_NE_C.BMP,stimuli/28M_NE_C.BMP,stimuli/EmptyFrame.bmp,stimuli/RedFrame.bmp,1,Neutral,Male,3,1,1.0,380.59454345703125,380.59454345703125,0.0,384.5943908691406,384.5943908691406,0.0,383.6025390625,383.6025390625,0.0,1.0,1.0,0.0,'1',0.7075760960578918,0.7075760960578918,0.0,91.0
Neutral,stimuli/08F_NE_C.BMP,stimuli/13F_NE_C.BMP,stimuli/08F_NE_C.BMP,stimuli/EmptyFrame.bmp,stimuli/RedFrame.bmp,2,Neutral,Female,3,1,1.0,384.6240539550781,384.6240539550781,0.0,388.6065979003906,388.6065979003906,0.0,387.6306457519531,387.6306457519531,0.0,1.0,1.0,0.0,'2',0.7083674073219299,0.7083674073219299,0.0,92.0
Neutral,stimuli/09F_NE_C.BMP,stimuli/09F_NE_C.BMP,stimuli/12F_NE_C.BMP,stimuli/EmptyFrame.bmp,stimuli/RedFrame.bmp,1,Neutral,Female,3,1,1.0,388.63177490234375,388.63177490234375,0.0,392.6287841796875,392.6287841796875,0.0,391.6364440917969,391.6364440917969,0.0,1.0,1.0,0.0,'1',0.7032110095024109,0.7032110095024109,0.0,93.0
Neutral,stimuli/27M_NE_C.BMP,stimuli/26M_NE_C.BMP,stimuli/27M_NE_C.BMP,stimuli/EmptyFrame.bmp,stimuli/RedFrame.bmp,2,Neutral,Male,3,1,1.0,392.6486511230469,392.6486511230469,0.0,396.650634765625,396.650634765625,0.0,395.66290283203125,395.66290283203125,0.0,1.0,1.0,0.0,'2',0.7438958287239075,0.7438958287239075,0.0,94.0
Neutral,stimuli/28M_NE_C.BMP,stimuli/28M_NE_C.BMP,stimuli/25M_NE_C.BMP,stimuli/EmptyFrame.bmp,stimuli/RedFrame.bmp,1,Neutral,Male,3,1,1.0,396.677490234375,396.677490234375,0.0,400.6698913574219,400.6698913574219,0.0,399.7234802246094,399.7234802246094,0.0,1.0,1.0,0.0,'1',1.0220087766647339,1.0220087766647339,0.0,95.0
Neutral,stimuli/10F_NE_C.BMP,stimuli/11F_NE_C.BMP,stimuli/10F_NE_C.BMP,stimuli/EmptyFrame.bmp,stimuli/RedFrame.bmp,2,Neutral,Female,3,1,1.0,400.69879150390625,400.69879150390625,0.0,404.6827392578125,404.6827392578125,0.0,403.7027893066406,403.7027893066406,0.0,1.0,1.0,0.0,'2',0.7841867804527283,0.7841867804527283,0.0,96.0
Neutral,stimuli/29M_NE_C.BMP,stimuli/29M_NE_C.BMP,stimuli/24M_NE_C.BMP,stimuli/EmptyFrame.bmp,stimuli/RedFrame.bmp,1,Neutral,Male,3,1,1.0,404.7088928222656,404.7088928222656,0.0,408.70330810546875,408.70330810546875,0.0,407.7226257324219,407.7226257324219,0.0,1.0,1.0,0.0,'1',0.8227130174636841,0.8227130174636841,0.0,97.0
Neutral,stimuli/11F_NE_C.BMP,stimuli/10F_NE_C.BMP,stimuli/11F_NE_C.BMP,stimuli/EmptyFrame.bmp,stimuli/RedFrame.bmp,2,Neutral,Female,3,1,1.0,408.7240905761719,408.7240905761719,0.0,412.7166442871094,412.7166442871094,0.0,411.735595703125,411.735595703125,0.0,0.0,0.0,0.0,'1',0.8427128195762634,0.8427128195762634,0.0,98.0
MatchFaces,stimuli/MatchFaces.bmp,stimuli/EmptyFace.bmp,stimuli/EmptyFace.bmp,stimuli/EmptyFrame.bmp,stimuli/EmptyFrame.bmp,Null,None,None,3,1,1.0,413.0213928222656,413.0213928222656,0.0,416.7230224609375,416.7230224609375,0.0,415.7283935546875,415.7283935546875,0.0,0.0,0.0,0.0,,,,,99.0
Fear,stimuli/23M_FE_O.BMP,stimuli/23M_FE_O.BMP,stimuli/24M_FE_O.BMP,stimuli/EmptyFrame.bmp,stimuli/RedFrame.bmp,1,Fear,Male,3,1,1.0,416.79730224609375,416.79730224609375,0.0,420.7373962402344,420.7373962402344,0.0,419.7502136230469,419.7502136230469,0.0,1.0,1.0,0.0,'1',1.2627243995666504,1.2627243995666504,0.0,100.0
Fear,stimuli/19F_FE_O.BMP,stimuli/18F_FE_O.BMP,stimuli/19F_FE_O.BMP,stimuli/EmptyFrame.bmp,stimuli/RedFrame.bmp,2,Fear,Female,3,1,1.0,420.7618408203125,420.7618408203125,0.0,424.7576599121094,424.7576599121094,0.0,423.7729797363281,423.7729797363281,0.0,1.0,1.0,0.0,'2',1.1850152015686035,1.1850152015686035,0.0,101.0
Fear,stimuli/17F_FE_O.BMP,stimuli/17F_FE_O.BMP,stimuli/16F_FE_O.BMP,stimuli/EmptyFrame.bmp,stimuli/RedFrame.bmp,1,Fear,Female,3,1,1.0,424.7864990234375,424.7864990234375,0.0,428.7786865234375,428.7786865234375,0.0,427.78558349609375,427.78558349609375,0.0,1.0,1.0,0.0,'1',1.0502134561538696,1.0502134561538696,0.0,102.0
Fear,stimuli/15F_FE_O.BMP,stimuli/18F_FE_O.BMP,stimuli/15F_FE_O.BMP,stimuli/EmptyFrame.bmp,stimuli/RedFrame.bmp,2,Fear,Female,3,1,1.0,428.80157470703125,428.80157470703125,0.0,432.8022155761719,432.8022155761719,0.0,431.8044128417969,431.8044128417969,0.0,1.0,1.0,0.0,'2',0.9676960110664368,0.9676960110664368,0.0,103.0
Fear,stimuli/21M_FE_O.BMP,stimuli/21M_FE_O.BMP,stimuli/22M_FE_O.BMP,stimuli/EmptyFrame.bmp,stimuli/RedFrame.bmp,1,Fear,Male,3,1,1.0,432.8310241699219,432.8310241699219,0.0,436.8150329589844,436.8150329589844,0.0,435.82952880859375,435.82952880859375,0.0,1.0,1.0,0.0,'1',0.9976310729980469,0.9976310729980469,0.0,104.0
Fear,stimuli/29M_FE_O.BMP,stimuli/30M_FE_O.BMP,stimuli/29M_FE_O.BMP,stimuli/EmptyFrame.bmp,stimuli/RedFrame.bmp,2,Fear,Male,3,1,1.0,436.8388977050781,436.8388977050781,0.0,440.82470703125,440.82470703125,0.0,439.8506774902344,439.8506774902344,0.0,1.0,1.0,0.0,'2',1.1687037944793701,1.1687037944793701,0.0,105.0
Fear,stimuli/31M_FE_O.BMP,stimuli/31M_FE_O.BMP,stimuli/38M_FE_O.BMP,stimuli/EmptyFrame.bmp,stimuli/RedFrame.bmp,1,Fear,Male,3,1,1.0,440.8525695800781,440.8525695800781,0.0,444.84161376953125,444.84161376953125,0.0,443.8545227050781,443.8545227050781,0.0,1.0,1.0,0.0,'1',0.6720498204231262,0.6720498204231262,0.0,106.0
Fear,stimuli/09F_FE_O.BMP,stimuli/07F_FE_O.BMP,stimuli/09F_FE_O.BMP,stimuli/EmptyFrame.bmp,stimuli/RedFrame.bmp,2,Fear,Female,3,1,1.0,444.873291015625,444.873291015625,0.0,448.86077880859375,448.86077880859375,0.0,447.8999328613281,447.8999328613281,0.0,0.0,0.0,0.0,'1',0.847175121307373,0.847175121307373,0.0,107.0
Fear,stimuli/11F_FE_O.BMP,stimuli/12F_FE_O.BMP,stimuli/11F_FE_O.BMP,stimuli/EmptyFrame.bmp,stimuli/RedFrame.bmp,2,Fear,Female,3,1,1.0,448.8811950683594,448.8811950683594,0.0,452.8848571777344,452.8848571777344,0.0,451.8870849609375,451.8870849609375,0.0,1.0,1.0,0.0,'2',1.516435146331787,1.516435146331787,0.0,108.0
Fear,stimuli/34M_FE_O.BMP,stimuli/34M_FE_O.BMP,stimuli/33M_FE_O.BMP,stimuli/EmptyFrame.bmp,stimuli/RedFrame.bmp,1,Fear,Male,3,1,1.0,452.9572448730469,452.9572448730469,0.0,456.9070739746094,456.9070739746094,0.0,455.91802978515625,455.91802978515625,0.0,1.0,1.0,0.0,'1',0.7969039082527161,0.7969039082527161,0.0,109.0

extraInfo
participant,sub003
session,001
date,2025_May_13_0912
expName,HaririTask_Ver1
psychopyVersion,3.0.1
frameRate,None
