TrialType,Top,Left,Right,EmptyFrame,SelectedFrame,Correct,Emotion,Gender,TrialLength,FixationLength,n,GCFaceStartTime_mean,GCFaceStartTime_raw,GCFaceStartTime_std,GCPostFaceFixationEndTime_mean,GCPostFaceFixationEndTime_raw,GCPostFaceFixationEndTime_std,GCPostFaceFixationStartTime_mean,GCPostFaceFixationStartTime_raw,GCPostFaceFixationStartTime_std,key_resp_trial.corr_mean,key_resp_trial.corr_raw,key_resp_trial.corr_std,key_resp_trial.keys_raw,key_resp_trial.rt_mean,key_resp_trial.rt_raw,key_resp_trial.rt_std,order
MatchFaces,stimuli/MatchFaces.bmp,stimuli/EmptyFace.bmp,stimuli/EmptyFace.bmp,stimuli/EmptyFrame.bmp,stimuli/EmptyFrame.bmp,Null,None,None,3,1,1.0,15.23505973815918,15.23505973815918,0.0,19.04765510559082,19.04765510559082,0.0,18.054344177246094,18.054344177246094,0.0,0.0,0.0,0.0,,,,,0.0
Fear,stimuli/23M_FE_O.BMP,stimuli/23M_FE_O.BMP,stimuli/24M_FE_O.BMP,stimuli/EmptyFrame.bmp,stimuli/RedFrame.bmp,1,Fear,Male,3,1,1.0,19.194438934326172,19.194438934326172,0.0,23.070898056030273,23.070898056030273,0.0,22.0877685546875,22.0877685546875,0.0,1.0,1.0,0.0,'1',1.2720091342926025,1.2720091342926025,0.0,1.0
Fear,stimuli/19F_FE_O.BMP,stimuli/18F_FE_O.BMP,stimuli/19F_FE_O.BMP,stimuli/EmptyFrame.bmp,stimuli/RedFrame.bmp,2,Fear,Female,3,1,1.0,23.098081588745117,23.098081588745117,0.0,27.095186233520508,27.095186233520508,0.0,26.103464126586914,26.103464126586914,0.0,1.0,1.0,0.0,'2',0.9494323134422302,0.9494323134422302,0.0,2.0
Fear,stimuli/17F_FE_O.BMP,stimuli/17F_FE_O.BMP,stimuli/16F_FE_O.BMP,stimuli/EmptyFrame.bmp,stimuli/RedFrame.bmp,1,Fear,Female,3,1,1.0,27.121442794799805,27.121442794799805,0.0,31.112348556518555,31.112348556518555,0.0,30.115510940551758,30.115510940551758,0.0,1.0,1.0,0.0,'1',1.0212639570236206,1.0212639570236206,0.0,3.0
Fear,stimuli/21M_FE_O.BMP,stimuli/21M_FE_O.BMP,stimuli/22M_FE_O.BMP,stimuli/EmptyFrame.bmp,stimuli/RedFrame.bmp,1,Fear,Male,3,1,1.0,31.1754093170166,31.1754093170166,0.0,35.12525177001953,35.12525177001953,0.0,34.143707275390625,34.143707275390625,0.0,1.0,1.0,0.0,'1',0.9430608153343201,0.9430608153343201,0.0,4.0
Fear,stimuli/09F_FE_O.BMP,stimuli/07F_FE_O.BMP,stimuli/09F_FE_O.BMP,stimuli/EmptyFrame.bmp,stimuli/RedFrame.bmp,2,Fear,Female,3,1,1.0,35.15218734741211,35.15218734741211,0.0,39.139137268066406,39.139137268066406,0.0,38.15237045288086,38.15237045288086,0.0,1.0,1.0,0.0,'2',0.9811609983444214,0.9811609983444214,0.0,5.0
Fear,stimuli/08F_FE_O.BMP,stimuli/13F_FE_O.BMP,stimuli/08F_FE_O.BMP,stimuli/EmptyFrame.bmp,stimuli/RedFrame.bmp,2,Fear,Female,3,1,1.0,39.16572570800781,39.16572570800781,0.0,43.16026306152344,43.16026306152344,0.0,42.17470169067383,42.17470169067383,0.0,1.0,1.0,0.0,'2',1.2534141540527344,1.2534141540527344,0.0,6.0
Fear,stimuli/07F_FE_O.BMP,stimuli/07F_FE_O.BMP,stimuli/14F_FE_O.BMP,stimuli/EmptyFrame.bmp,stimuli/RedFrame.bmp,1,Fear,Female,3,1,1.0,43.188480377197266,43.188480377197266,0.0,47.17825698852539,47.17825698852539,0.0,46.191341400146484,46.191341400146484,0.0,1.0,1.0,0.0,'1',0.9616484045982361,0.9616484045982361,0.0,7.0
Fear,stimuli/26M_FE_O.BMP,stimuli/26M_FE_O.BMP,stimuli/28M_FE_O.BMP,stimuli/EmptyFrame.bmp,stimuli/RedFrame.bmp,1,Fear,Male,3,1,1.0,47.2426872253418,47.2426872253418,0.0,51.19562911987305,51.19562911987305,0.0,50.20858383178711,50.20858383178711,0.0,1.0,1.0,0.0,'1',0.871602475643158,0.871602475643158,0.0,8.0
Fear,stimuli/10F_FE_O.BMP,stimuli/11F_FE_O.BMP,stimuli/10F_FE_O.BMP,stimuli/EmptyFrame.bmp,stimuli/RedFrame.bmp,2,Fear,Female,3,1,1.0,51.22130584716797,51.22130584716797,0.0,55.213775634765625,55.213775634765625,0.0,54.21973419189453,54.21973419189453,0.0,1.0,1.0,0.0,'2',1.016981840133667,1.016981840133667,0.0,9.0
Fear,stimuli/29M_FE_O.BMP,stimuli/30M_FE_O.BMP,stimuli/29M_FE_O.BMP,stimuli/EmptyFrame.bmp,stimuli/RedFrame.bmp,2,Fear,Male,3,1,1.0,55.23577880859375,55.23577880859375,0.0,59.23407745361328,59.23407745361328,0.0,58.25482177734375,58.25482177734375,0.0,1.0,1.0,0.0,'2',0.8938040733337402,0.8938040733337402,0.0,10.0
MatchFaces,stimuli/MatchFaces.bmp,stimuli/EmptyFace.bmp,stimuli/EmptyFace.bmp,stimuli/EmptyFrame.bmp,stimuli/EmptyFrame.bmp,Null,None,None,3,1,1.0,59.36050796508789,59.36050796508789,0.0,63.24419021606445,63.24419021606445,0.0,62.24893569946289,62.24893569946289,0.0,0.0,0.0,0.0,,,,,11.0
Neutral,stimuli/07F_NE_C.BMP,stimuli/07F_NE_C.BMP,stimuli/14F_NE_C.BMP,stimuli/EmptyFrame.bmp,stimuli/RedFrame.bmp,1,Neutral,Female,3,1,1.0,63.292686462402344,63.292686462402344,0.0,67.2602310180664,67.2602310180664,0.0,66.2777099609375,66.2777099609375,0.0,1.0,1.0,0.0,'1',0.7997666001319885,0.7997666001319885,0.0,12.0
Neutral,stimuli/25M_NE_C.BMP,stimuli/29M_NE_C.BMP,stimuli/25M_NE_C.BMP,stimuli/EmptyFrame.bmp,stimuli/RedFrame.bmp,2,Neutral,Male,3,1,1.0,67.29100036621094,67.29100036621094,0.0,71.28413391113281,71.28413391113281,0.0,70.29759979248047,70.29759979248047,0.0,1.0,1.0,0.0,'2',0.8275197744369507,0.8275197744369507,0.0,13.0
Neutral,stimuli/26M_NE_C.BMP,stimuli/26M_NE_C.BMP,stimuli/28M_NE_C.BMP,stimuli/EmptyFrame.bmp,stimuli/RedFrame.bmp,1,Neutral,Male,3,1,1.0,71.31504821777344,71.31504821777344,0.0,75.3019027709961,75.3019027709961,0.0,74.32294464111328,74.32294464111328,0.0,1.0,1.0,0.0,'1',0.6481105089187622,0.6481105089187622,0.0,14.0
Neutral,stimuli/08F_NE_C.BMP,stimuli/13F_NE_C.BMP,stimuli/08F_NE_C.BMP,stimuli/EmptyFrame.bmp,stimuli/RedFrame.bmp,2,Neutral,Female,3,1,1.0,75.32859802246094,75.32859802246094,0.0,79.31657409667969,79.31657409667969,0.0,78.33943939208984,78.33943939208984,0.0,1.0,1.0,0.0,'2',0.8008772730827332,0.8008772730827332,0.0,15.0
Neutral,stimuli/09F_NE_C.BMP,stimuli/09F_NE_C.BMP,stimuli/12F_NE_C.BMP,stimuli/EmptyFrame.bmp,stimuli/RedFrame.bmp,1,Neutral,Female,3,1,1.0,79.34737396240234,79.34737396240234,0.0,83.3433837890625,83.3433837890625,0.0,82.34977722167969,82.34977722167969,0.0,1.0,1.0,0.0,'1',0.8246889114379883,0.8246889114379883,0.0,16.0
Neutral,stimuli/27M_NE_C.BMP,stimuli/26M_NE_C.BMP,stimuli/27M_NE_C.BMP,stimuli/EmptyFrame.bmp,stimuli/RedFrame.bmp,2,Neutral,Male,3,1,1.0,83.36609649658203,83.36609649658203,0.0,87.35234832763672,87.35234832763672,0.0,86.37627410888672,86.37627410888672,0.0,1.0,1.0,0.0,'2',0.850601315498352,0.850601315498352,0.0,17.0
Neutral,stimuli/28M_NE_C.BMP,stimuli/28M_NE_C.BMP,stimuli/25M_NE_C.BMP,stimuli/EmptyFrame.bmp,stimuli/RedFrame.bmp,1,Neutral,Male,3,1,1.0,87.37680053710938,87.37680053710938,0.0,91.37944030761719,91.37944030761719,0.0,90.38033294677734,90.38033294677734,0.0,1.0,1.0,0.0,'1',0.9263378977775574,0.9263378977775574,0.0,18.0
Neutral,stimuli/10F_NE_C.BMP,stimuli/11F_NE_C.BMP,stimuli/10F_NE_C.BMP,stimuli/EmptyFrame.bmp,stimuli/RedFrame.bmp,2,Neutral,Female,3,1,1.0,91.44425201416016,91.44425201416016,0.0,95.40877532958984,95.40877532958984,0.0,94.40837097167969,94.40837097167969,0.0,1.0,1.0,0.0,'2',0.8379279971122742,0.8379279971122742,0.0,19.0
Neutral,stimuli/29M_NE_C.BMP,stimuli/29M_NE_C.BMP,stimuli/24M_NE_C.BMP,stimuli/EmptyFrame.bmp,stimuli/RedFrame.bmp,1,Neutral,Male,3,1,1.0,95.43824005126953,95.43824005126953,0.0,99.43020629882812,99.43020629882812,0.0,98.44036865234375,98.44036865234375,0.0,1.0,1.0,0.0,'1',0.9472755789756775,0.9472755789756775,0.0,20.0
Neutral,stimuli/11F_NE_C.BMP,stimuli/10F_NE_C.BMP,stimuli/11F_NE_C.BMP,stimuli/EmptyFrame.bmp,stimuli/RedFrame.bmp,2,Neutral,Female,3,1,1.0,99.45513916015625,99.45513916015625,0.0,103.45083618164062,103.45083618164062,0.0,102.4583740234375,102.4583740234375,0.0,1.0,1.0,0.0,'2',0.7917822003364563,0.7917822003364563,0.0,21.0
MatchShape,stimuli/MatchShapes.bmp,stimuli/EmptyFace.bmp,stimuli/EmptyFace.bmp,stimuli/EmptyFrame.bmp,stimuli/EmptyFrame.bmp,Null,None,None,3,1,1.0,103.47769165039062,103.47769165039062,0.0,107.45784759521484,107.45784759521484,0.0,106.46620178222656,106.46620178222656,0.0,0.0,0.0,0.0,,,,,22.0
Shape,stimuli/circle.bmp,stimuli/vertical.bmp,stimuli/circle.bmp,stimuli/EmptyFrame.bmp,stimuli/RedFrame.bmp,2,Shape,None,3,1,1.0,107.52386474609375,107.52386474609375,0.0,111.47350311279297,111.47350311279297,0.0,110.4821548461914,110.4821548461914,0.0,1.0,1.0,0.0,'2',0.7596185207366943,0.7596185207366943,0.0,23.0
Shape,stimuli/horizontal.bmp,stimuli/circle.bmp,stimuli/horizontal.bmp,stimuli/EmptyFrame.bmp,stimuli/RedFrame.bmp,2,Shape,None,3,1,1.0,111.49795532226562,111.49795532226562,0.0,115.48884582519531,115.48884582519531,0.0,114.50503540039062,114.50503540039062,0.0,1.0,1.0,0.0,'2',0.7242028117179871,0.7242028117179871,0.0,24.0
Shape,stimuli/circle.bmp,stimuli/vertical.bmp,stimuli/circle.bmp,stimuli/EmptyFrame.bmp,stimuli/RedFrame.bmp,2,Shape,None,3,1,1.0,115.51497650146484,115.51497650146484,0.0,119.50012969970703,119.50012969970703,0.0,118.51646423339844,118.51646423339844,0.0,1.0,1.0,0.0,'2',0.7802156209945679,0.7802156209945679,0.0,25.0
Shape,stimuli/vertical.bmp,stimuli/circle.bmp,stimuli/vertical.bmp,stimuli/EmptyFrame.bmp,stimuli/RedFrame.bmp,2,Shape,None,3,1,1.0,119.522216796875,119.522216796875,0.0,123.51876831054688,123.51876831054688,0.0,122.5244140625,122.5244140625,0.0,1.0,1.0,0.0,'2',0.711873471736908,0.711873471736908,0.0,26.0
Shape,stimuli/vertical.bmp,stimuli/horizontal.bmp,stimuli/vertical.bmp,stimuli/EmptyFrame.bmp,stimuli/RedFrame.bmp,2,Shape,None,3,1,1.0,123.5418930053711,123.5418930053711,0.0,127.53351593017578,127.53351593017578,0.0,126.54503631591797,126.54503631591797,0.0,1.0,1.0,0.0,'2',0.7155534029006958,0.7155534029006958,0.0,27.0
Shape,stimuli/horizontal.bmp,stimuli/horizontal.bmp,stimuli/vertical.bmp,stimuli/EmptyFrame.bmp,stimuli/RedFrame.bmp,1,Shape,None,3,1,1.0,127.55412292480469,127.55412292480469,0.0,131.54873657226562,131.54873657226562,0.0,130.56919860839844,130.56919860839844,0.0,1.0,1.0,0.0,'1',0.9204909205436707,0.9204909205436707,0.0,28.0
Shape,stimuli/horizontal.bmp,stimuli/circle.bmp,stimuli/horizontal.bmp,stimuli/EmptyFrame.bmp,stimuli/RedFrame.bmp,2,Shape,None,3,1,1.0,131.5691680908203,131.5691680908203,0.0,135.5596923828125,135.5596923828125,0.0,134.5760040283203,134.5760040283203,0.0,1.0,1.0,0.0,'2',0.7108162045478821,0.7108162045478821,0.0,29.0
Shape,stimuli/circle.bmp,stimuli/circle.bmp,stimuli/vertical.bmp,stimuli/EmptyFrame.bmp,stimuli/RedFrame.bmp,1,Shape,None,3,1,1.0,135.5813751220703,135.5813751220703,0.0,139.57501220703125,139.57501220703125,0.0,138.59002685546875,138.59002685546875,0.0,1.0,1.0,0.0,'1',0.8886731266975403,0.8886731266975403,0.0,30.0
Shape,stimuli/vertical.bmp,stimuli/horizontal.bmp,stimuli/vertical.bmp,stimuli/EmptyFrame.bmp,stimuli/RedFrame.bmp,2,Shape,None,3,1,1.0,139.59376525878906,139.59376525878906,0.0,143.5948028564453,143.5948028564453,0.0,142.60531616210938,142.60531616210938,0.0,1.0,1.0,0.0,'2',0.6929627060890198,0.6929627060890198,0.0,31.0
Shape,stimuli/vertical.bmp,stimuli/vertical.bmp,stimuli/horizontal.bmp,stimuli/EmptyFrame.bmp,stimuli/RedFrame.bmp,1,Shape,None,3,1,1.0,143.6180419921875,143.6180419921875,0.0,147.61160278320312,147.61160278320312,0.0,146.61558532714844,146.61558532714844,0.0,1.0,1.0,0.0,'1',1.146218180656433,1.146218180656433,0.0,32.0
MatchFaces,stimuli/MatchFaces.bmp,stimuli/EmptyFace.bmp,stimuli/EmptyFace.bmp,stimuli/EmptyFrame.bmp,stimuli/EmptyFrame.bmp,Null,None,None,3,1,1.0,147.74395751953125,147.74395751953125,0.0,151.6179962158203,151.6179962158203,0.0,150.62359619140625,150.62359619140625,0.0,0.0,0.0,0.0,,,,,33.0
Anger,stimuli/20M_AN_O.BMP,stimuli/34M_AN_O.BMP,stimuli/20M_AN_O.BMP,stimuli/EmptyFrame.bmp,stimuli/RedFrame.bmp,2,Anger,Male,3,1,1.0,151.66932678222656,151.66932678222656,0.0,155.63043212890625,155.63043212890625,0.0,154.64596557617188,154.64596557617188,0.0,1.0,1.0,0.0,'2',0.8273000717163086,0.8273000717163086,0.0,34.0
Anger,stimuli/01F_AN_O.bmp,stimuli/19F_AN_O.BMP,stimuli/01F_AN_O.bmp,stimuli/EmptyFrame.bmp,stimuli/RedFrame.bmp,2,Anger,Female,3,1,1.0,155.66197204589844,155.66197204589844,0.0,159.65293884277344,159.65293884277344,0.0,158.654052734375,158.654052734375,0.0,1.0,1.0,0.0,'2',0.6224364042282104,0.6224364042282104,0.0,35.0
Anger,stimuli/06F_AN_O.bmp,stimuli/15F_AN_O.BMP,stimuli/06F_AN_O.bmp,stimuli/EmptyFrame.bmp,stimuli/RedFrame.bmp,2,Anger,Female,3,1,1.0,159.68185424804688,159.68185424804688,0.0,163.66909790039062,163.66909790039062,0.0,162.67298889160156,162.67298889160156,0.0,1.0,1.0,0.0,'2',0.8682636022567749,0.8682636022567749,0.0,36.0
Anger,stimuli/42M_AN_O.BMP,stimuli/42M_AN_O.BMP,stimuli/43M_AN_O.BMP,stimuli/EmptyFrame.bmp,stimuli/RedFrame.bmp,1,Anger,Male,3,1,1.0,163.70108032226562,163.70108032226562,0.0,167.69361877441406,167.69361877441406,0.0,166.7034149169922,166.7034149169922,0.0,1.0,1.0,0.0,'1',0.8325421214103699,0.8325421214103699,0.0,37.0
Anger,stimuli/40M_AN_O.BMP,stimuli/41M_AN_O.BMP,stimuli/40M_AN_O.BMP,stimuli/EmptyFrame.bmp,stimuli/RedFrame.bmp,2,Anger,Male,3,1,1.0,167.76058959960938,167.76058959960938,0.0,171.70574951171875,171.70574951171875,0.0,170.71728515625,170.71728515625,0.0,1.0,1.0,0.0,'2',0.6754087805747986,0.6754087805747986,0.0,38.0
Anger,stimuli/08F_AN_O.BMP,stimuli/08F_AN_O.BMP,stimuli/13F_AN_O.BMP,stimuli/EmptyFrame.bmp,stimuli/RedFrame.bmp,1,Anger,Female,3,1,1.0,171.73663330078125,171.73663330078125,0.0,175.7207794189453,175.7207794189453,0.0,174.73023986816406,174.73023986816406,0.0,1.0,1.0,0.0,'1',0.7776122093200684,0.7776122093200684,0.0,39.0
Anger,stimuli/09F_AN_O.BMP,stimuli/12F_AN_O.BMP,stimuli/09F_AN_O.BMP,stimuli/EmptyFrame.bmp,stimuli/RedFrame.bmp,2,Anger,Female,3,1,1.0,175.7496337890625,175.7496337890625,0.0,179.73272705078125,179.73272705078125,0.0,178.7565460205078,178.7565460205078,0.0,1.0,1.0,0.0,'2',0.6677749156951904,0.6677749156951904,0.0,40.0
Anger,stimuli/34M_AN_O.BMP,stimuli/35M_AN_O.BMP,stimuli/34M_AN_O.BMP,stimuli/EmptyFrame.bmp,stimuli/RedFrame.bmp,2,Anger,Male,3,1,1.0,179.75936889648438,179.75936889648438,0.0,183.7497100830078,183.7497100830078,0.0,182.7567901611328,182.7567901611328,0.0,1.0,1.0,0.0,'2',0.6203112006187439,0.6203112006187439,0.0,41.0
Anger,stimuli/24M_AN_O.BMP,stimuli/24M_AN_O.BMP,stimuli/30M_AN_O.BMP,stimuli/EmptyFrame.bmp,stimuli/RedFrame.bmp,1,Anger,Male,3,1,1.0,183.77560424804688,183.77560424804688,0.0,187.770263671875,187.770263671875,0.0,186.77627563476562,186.77627563476562,0.0,1.0,1.0,0.0,'1',0.8600422143936157,0.8600422143936157,0.0,42.0
Anger,stimuli/03F_AN_O.bmp,stimuli/03F_AN_O.bmp,stimuli/17F_AN_O.BMP,stimuli/EmptyFrame.bmp,stimuli/RedFrame.bmp,1,Anger,Female,3,1,1.0,187.80580139160156,187.80580139160156,0.0,191.78408813476562,191.78408813476562,0.0,190.79344177246094,190.79344177246094,0.0,1.0,1.0,0.0,'1',0.7288020849227905,0.7288020849227905,0.0,43.0
MatchFaces,stimuli/MatchFaces.bmp,stimuli/EmptyFace.bmp,stimuli/EmptyFace.bmp,stimuli/EmptyFrame.bmp,stimuli/EmptyFrame.bmp,Null,None,None,3,1,1.0,191.91220092773438,191.91220092773438,0.0,195.78955078125,195.78955078125,0.0,194.80108642578125,194.80108642578125,0.0,0.0,0.0,0.0,,,,,44.0
Happy,stimuli/06F_HA_O.bmp,stimuli/07F_HA_O.BMP,stimuli/06F_HA_O.bmp,stimuli/EmptyFrame.bmp,stimuli/RedFrame.bmp,2,Happy,Female,3,1,1.0,195.83602905273438,195.83602905273438,0.0,199.80279541015625,199.80279541015625,0.0,198.81382751464844,198.81382751464844,0.0,1.0,1.0,0.0,'2',0.7970806956291199,0.7970806956291199,0.0,45.0
Happy,stimuli/13F_HA_O.BMP,stimuli/13F_HA_O.BMP,stimuli/12F_HA_O.BMP,stimuli/EmptyFrame.bmp,stimuli/RedFrame.bmp,1,Happy,Female,3,1,1.0,199.8314971923828,199.8314971923828,0.0,203.81822204589844,203.81822204589844,0.0,202.83738708496094,202.83738708496094,0.0,1.0,1.0,0.0,'1',0.7318444848060608,0.7318444848060608,0.0,46.0
Happy,stimuli/41M_HA_O.BMP,stimuli/41M_HA_O.BMP,stimuli/40M_HA_O.BMP,stimuli/EmptyFrame.bmp,stimuli/RedFrame.bmp,1,Happy,Male,3,1,1.0,203.84608459472656,203.84608459472656,0.0,207.83718872070312,207.83718872070312,0.0,206.85386657714844,206.85386657714844,0.0,1.0,1.0,0.0,'1',0.7684369087219238,0.7684369087219238,0.0,47.0
Happy,stimuli/03F_HA_O.bmp,stimuli/05F_HA_O.bmp,stimuli/03F_HA_O.bmp,stimuli/EmptyFrame.bmp,stimuli/RedFrame.bmp,2,Happy,Female,3,1,1.0,207.86500549316406,207.86500549316406,0.0,211.8529510498047,211.8529510498047,0.0,210.86572265625,210.86572265625,0.0,1.0,1.0,0.0,'2',0.7177215218544006,0.7177215218544006,0.0,48.0
Happy,stimuli/24M_HA_O.BMP,stimuli/24M_HA_O.BMP,stimuli/25M_HA_O.BMP,stimuli/EmptyFrame.bmp,stimuli/RedFrame.bmp,1,Happy,Male,3,1,1.0,211.9180908203125,211.9180908203125,0.0,215.8787078857422,215.8787078857422,0.0,214.88973999023438,214.88973999023438,0.0,1.0,1.0,0.0,'1',0.7860862016677856,0.7860862016677856,0.0,49.0
Happy,stimuli/19F_HA_O.BMP,stimuli/19F_HA_O.BMP,stimuli/18F_HA_O.BMP,stimuli/EmptyFrame.bmp,stimuli/RedFrame.bmp,1,Happy,Female,3,1,1.0,215.9108123779297,215.9108123779297,0.0,219.90365600585938,219.90365600585938,0.0,218.90048217773438,218.90048217773438,0.0,1.0,1.0,0.0,'1',0.7236291766166687,0.7236291766166687,0.0,50.0
Happy,stimuli/01F_HA_O.bmp,stimuli/01F_HA_O.bmp,stimuli/02F_HA_O.bmp,stimuli/EmptyFrame.bmp,stimuli/RedFrame.bmp,1,Happy,Female,3,1,1.0,219.93682861328125,219.93682861328125,0.0,223.91844177246094,223.91844177246094,0.0,222.9315948486328,222.9315948486328,0.0,1.0,1.0,0.0,'1',0.5974292159080505,0.5974292159080505,0.0,51.0
Happy,stimuli/22M_HA_O.BMP,stimuli/23M_HA_O.BMP,stimuli/22M_HA_O.BMP,stimuli/EmptyFrame.bmp,stimuli/RedFrame.bmp,2,Happy,Male,3,1,1.0,223.95022583007812,223.95022583007812,0.0,227.94052124023438,227.94052124023438,0.0,226.9611358642578,226.9611358642578,0.0,1.0,1.0,0.0,'2',0.9164223074913025,0.9164223074913025,0.0,52.0
Happy,stimuli/35M_HA_O.BMP,stimuli/34M_HA_O.BMP,stimuli/35M_HA_O.BMP,stimuli/EmptyFrame.bmp,stimuli/RedFrame.bmp,2,Happy,Male,3,1,1.0,228.00921630859375,228.00921630859375,0.0,231.9512176513672,231.9512176513672,0.0,230.9755096435547,230.9755096435547,0.0,1.0,1.0,0.0,'2',0.8150981068611145,0.8150981068611145,0.0,53.0
Happy,stimuli/39M_HA_O.BMP,stimuli/38M_HA_O.BMP,stimuli/39M_HA_O.BMP,stimuli/EmptyFrame.bmp,stimuli/RedFrame.bmp,2,Happy,Male,3,1,1.0,232.00550842285156,232.00550842285156,0.0,235.9705352783203,235.9705352783203,0.0,234.9822998046875,234.9822998046875,0.0,1.0,1.0,0.0,'2',0.6437823176383972,0.6437823176383972,0.0,54.0
Match Shape,stimuli/MatchShapes.bmp,stimuli/EmptyFace.bmp,stimuli/EmptyFace.bmp,stimuli/EmptyFrame.bmp,stimuli/EmptyFrame.bmp,Null,None,None,3,1,1.0,235.99143981933594,235.99143981933594,0.0,239.97418212890625,239.97418212890625,0.0,238.98672485351562,238.98672485351562,0.0,0.0,0.0,0.0,,,,,55.0
Shape,stimuli/horizontal.bmp,stimuli/horizontal.bmp,stimuli/vertical.bmp,stimuli/EmptyFrame.bmp,stimuli/RedFrame.bmp,1,Shape,None,3,1,1.0,240.0032196044922,240.0032196044922,0.0,243.99105834960938,243.99105834960938,0.0,242.9982147216797,242.9982147216797,0.0,1.0,1.0,0.0,'1',0.8401147723197937,0.8401147723197937,0.0,56.0
Shape,stimuli/horizontal.bmp,stimuli/horizontal.bmp,stimuli/circle.bmp,stimuli/EmptyFrame.bmp,stimuli/RedFrame.bmp,1,Shape,None,3,1,1.0,244.01071166992188,244.01071166992188,0.0,248.00389099121094,248.00389099121094,0.0,247.01922607421875,247.01922607421875,0.0,1.0,1.0,0.0,'1',0.6490046977996826,0.6490046977996826,0.0,57.0
Shape,stimuli/circle.bmp,stimuli/vertical.bmp,stimuli/circle.bmp,stimuli/EmptyFrame.bmp,stimuli/RedFrame.bmp,2,Shape,None,3,1,1.0,248.02755737304688,248.02755737304688,0.0,252.01687622070312,252.01687622070312,0.0,251.03656005859375,251.03656005859375,0.0,1.0,1.0,0.0,'2',0.7642585039138794,0.7642585039138794,0.0,58.0
Shape,stimuli/vertical.bmp,stimuli/vertical.bmp,stimuli/circle.bmp,stimuli/EmptyFrame.bmp,stimuli/RedFrame.bmp,1,Shape,None,3,1,1.0,252.04205322265625,252.04205322265625,0.0,256.0405578613281,256.0405578613281,0.0,255.04550170898438,255.04550170898438,0.0,1.0,1.0,0.0,'1',0.6888545155525208,0.6888545155525208,0.0,59.0
Shape,stimuli/horizontal.bmp,stimuli/horizontal.bmp,stimuli/circle.bmp,stimuli/EmptyFrame.bmp,stimuli/RedFrame.bmp,1,Shape,None,3,1,1.0,256.0714111328125,256.0714111328125,0.0,260.05474853515625,260.05474853515625,0.0,259.072265625,259.072265625,0.0,1.0,1.0,0.0,'1',0.6216440796852112,0.6216440796852112,0.0,60.0
Shape,stimuli/vertical.bmp,stimuli/vertical.bmp,stimuli/circle.bmp,stimuli/EmptyFrame.bmp,stimuli/RedFrame.bmp,1,Shape,None,3,1,1.0,260.0784606933594,260.0784606933594,0.0,264.0682373046875,264.0682373046875,0.0,263.0842590332031,263.0842590332031,0.0,1.0,1.0,0.0,'1',0.6519944071769714,0.6519944071769714,0.0,61.0
Shape,stimuli/horizontal.bmp,stimuli/circle.bmp,stimuli/horizontal.bmp,stimuli/EmptyFrame.bmp,stimuli/RedFrame.bmp,2,Shape,None,3,1,1.0,264.0901184082031,264.0901184082031,0.0,268.0857849121094,268.0857849121094,0.0,267.1069030761719,267.1069030761719,0.0,1.0,1.0,0.0,'2',0.7500436902046204,0.7500436902046204,0.0,62.0
Shape,stimuli/circle.bmp,stimuli/circle.bmp,stimuli/horizontal.bmp,stimuli/EmptyFrame.bmp,stimuli/RedFrame.bmp,1,Shape,None,3,1,1.0,268.1092834472656,268.1092834472656,0.0,272.10455322265625,272.10455322265625,0.0,271.1122131347656,271.1122131347656,0.0,1.0,1.0,0.0,'1',0.6776815056800842,0.6776815056800842,0.0,63.0
Shape,stimuli/circle.bmp,stimuli/horizontal.bmp,stimuli/circle.bmp,stimuli/EmptyFrame.bmp,stimuli/RedFrame.bmp,2,Shape,None,3,1,1.0,272.12615966796875,272.12615966796875,0.0,276.12274169921875,276.12274169921875,0.0,275.1416015625,275.1416015625,0.0,1.0,1.0,0.0,'2',0.6146777868270874,0.6146777868270874,0.0,64.0
Shape,stimuli/vertical.bmp,stimuli/vertical.bmp,stimuli/horizontal.bmp,stimuli/EmptyFrame.bmp,stimuli/RedFrame.bmp,1,Shape,None,3,1,1.0,276.1435852050781,276.1435852050781,0.0,280.148193359375,280.148193359375,0.0,279.154541015625,279.154541015625,0.0,1.0,1.0,0.0,'1',0.743946373462677,0.743946373462677,0.0,65.0
MatchFaces,stimuli/MatchFaces.bmp,stimuli/EmptyFace.bmp,stimuli/EmptyFace.bmp,stimuli/EmptyFrame.bmp,stimuli/EmptyFrame.bmp,Null,None,None,3,1,1.0,280.2870788574219,280.2870788574219,0.0,284.1510925292969,284.1510925292969,0.0,283.1659240722656,283.1659240722656,0.0,0.0,0.0,0.0,,,,,66.0
Neutral,stimuli/20M_NE_C.BMP,stimuli/21M_NE_C.BMP,stimuli/20M_NE_C.BMP,stimuli/EmptyFrame.bmp,stimuli/RedFrame.bmp,2,Neutral,Male,3,1,1.0,284.20269775390625,284.20269775390625,0.0,288.1715393066406,288.1715393066406,0.0,287.1892395019531,287.1892395019531,0.0,1.0,1.0,0.0,'2',1.180414080619812,1.180414080619812,0.0,67.0
Neutral,stimuli/01F_NE_C.bmp,stimuli/01F_NE_C.bmp,stimuli/02F_NE_C.bmp,stimuli/EmptyFrame.bmp,stimuli/RedFrame.bmp,1,Neutral,Female,3,1,1.0,288.2041015625,288.2041015625,0.0,292.1830749511719,292.1830749511719,0.0,291.19549560546875,291.19549560546875,0.0,1.0,1.0,0.0,'1',0.9064695835113525,0.9064695835113525,0.0,68.0
Neutral,stimuli/22M_NE_C.BMP,stimuli/23M_NE_C.BMP,stimuli/22M_NE_C.BMP,stimuli/EmptyFrame.bmp,stimuli/RedFrame.bmp,2,Neutral,Male,3,1,1.0,292.2154541015625,292.2154541015625,0.0,296.2005920410156,296.2005920410156,0.0,295.2102355957031,295.2102355957031,0.0,1.0,1.0,0.0,'2',1.1696913242340088,1.1696913242340088,0.0,69.0
Neutral,stimuli/24M_NE_C.BMP,stimuli/24M_NE_C.BMP,stimuli/25M_NE_C.BMP,stimuli/EmptyFrame.bmp,stimuli/RedFrame.bmp,1,Neutral,Male,3,1,1.0,296.22021484375,296.22021484375,0.0,300.2238464355469,300.2238464355469,0.0,299.2314147949219,299.2314147949219,0.0,1.0,1.0,0.0,'1',0.8636869788169861,0.8636869788169861,0.0,70.0
Neutral,stimuli/03F_NE_C.bmp,stimuli/05F_NE_C.bmp,stimuli/03F_NE_C.bmp,stimuli/EmptyFrame.bmp,stimuli/RedFrame.bmp,2,Neutral,Female,3,1,1.0,300.25408935546875,300.25408935546875,0.0,304.2330322265625,304.2330322265625,0.0,303.2533874511719,303.2533874511719,0.0,1.0,1.0,0.0,'2',0.7126210927963257,0.7126210927963257,0.0,71.0
Neutral,stimuli/26M_NE_C.BMP,stimuli/26M_NE_C.BMP,stimuli/27M_NE_C.BMP,stimuli/EmptyFrame.bmp,stimuli/RedFrame.bmp,1,Neutral,Male,3,1,1.0,304.25567626953125,304.25567626953125,0.0,308.2464599609375,308.2464599609375,0.0,307.2671203613281,307.2671203613281,0.0,1.0,1.0,0.0,'1',0.673626720905304,0.673626720905304,0.0,72.0
Neutral,stimuli/06F_NE_C.bmp,stimuli/07F_NE_C.BMP,stimuli/06F_NE_C.bmp,stimuli/EmptyFrame.bmp,stimuli/RedFrame.bmp,2,Neutral,Female,3,1,1.0,308.3046569824219,308.3046569824219,0.0,312.2705078125,312.2705078125,0.0,311.27520751953125,311.27520751953125,0.0,1.0,1.0,0.0,'2',0.6762158274650574,0.6762158274650574,0.0,73.0
Neutral,stimuli/08F_NE_C.BMP,stimuli/08F_NE_C.BMP,stimuli/09F_NE_C.BMP,stimuli/EmptyFrame.bmp,stimuli/RedFrame.bmp,1,Neutral,Female,3,1,1.0,312.29998779296875,312.29998779296875,0.0,316.28338623046875,316.28338623046875,0.0,315.3009948730469,315.3009948730469,0.0,1.0,1.0,0.0,'1',1.0742532014846802,1.0742532014846802,0.0,74.0
Neutral,stimuli/28M_NE_C.BMP,stimuli/29M_NE_C.BMP,stimuli/28M_NE_C.BMP,stimuli/EmptyFrame.bmp,stimuli/RedFrame.bmp,2,Neutral,Male,3,1,1.0,316.3068542480469,316.3068542480469,0.0,320.3033447265625,320.3033447265625,0.0,319.31036376953125,319.31036376953125,0.0,1.0,1.0,0.0,'2',0.7775083184242249,0.7775083184242249,0.0,75.0
Neutral,stimuli/10F_NE_C.BMP,stimuli/10F_NE_C.BMP,stimuli/06F_NE_C.bmp,stimuli/EmptyFrame.bmp,stimuli/RedFrame.bmp,1,Neutral,Female,3,1,1.0,320.3277893066406,320.3277893066406,0.0,324.31915283203125,324.31915283203125,0.0,323.3338317871094,323.3338317871094,0.0,1.0,1.0,0.0,'1',0.6463482975959778,0.6463482975959778,0.0,76.0
MatchFaces,stimuli/MatchFaces.bmp,stimuli/EmptyFace.bmp,stimuli/EmptyFace.bmp,stimuli/EmptyFrame.bmp,stimuli/EmptyFrame.bmp,Null,None,None,3,1,1.0,324.4942626953125,324.4942626953125,0.0,328.3240966796875,328.3240966796875,0.0,327.33587646484375,327.33587646484375,0.0,0.0,0.0,0.0,,,,,77.0
Happy,stimuli/28M_HA_O.BMP,stimuli/29M_HA_O.BMP,stimuli/28M_HA_O.BMP,stimuli/EmptyFrame.bmp,stimuli/RedFrame.bmp,2,Happy,Male,3,1,1.0,328.3916320800781,328.3916320800781,0.0,332.34002685546875,332.34002685546875,0.0,331.3506774902344,331.3506774902344,0.0,1.0,1.0,0.0,'2',1.0080922842025757,1.0080922842025757,0.0,78.0
Happy,stimuli/10F_HA_O.BMP,stimuli/10F_HA_O.BMP,stimuli/06F_HA_O.bmp,stimuli/EmptyFrame.bmp,stimuli/RedFrame.bmp,1,Happy,Female,3,1,1.0,332.3643798828125,332.3643798828125,0.0,336.3553771972656,336.3553771972656,0.0,335.3697814941406,335.3697814941406,0.0,1.0,1.0,0.0,'1',0.6515300869941711,0.6515300869941711,0.0,79.0
Happy,stimuli/26M_HA_O.BMP,stimuli/26M_HA_O.BMP,stimuli/27M_HA_O.BMP,stimuli/EmptyFrame.bmp,stimuli/RedFrame.bmp,1,Happy,Male,3,1,1.0,336.3879089355469,336.3879089355469,0.0,340.36834716796875,340.36834716796875,0.0,339.38519287109375,339.38519287109375,0.0,1.0,1.0,0.0,'1',0.6759197115898132,0.6759197115898132,0.0,80.0
Happy,stimuli/20M_HA_O.BMP,stimuli/21M_HA_O.BMP,stimuli/20M_HA_O.BMP,stimuli/EmptyFrame.bmp,stimuli/RedFrame.bmp,2,Happy,Male,3,1,1.0,340.3951110839844,340.3951110839844,0.0,344.38909912109375,344.38909912109375,0.0,343.3961486816406,343.3961486816406,0.0,1.0,1.0,0.0,'2',1.0286275148391724,1.0286275148391724,0.0,81.0
Happy,stimuli/37M_HA_O.BMP,stimuli/37M_HA_O.BMP,stimuli/36M_HA_O.BMP,stimuli/EmptyFrame.bmp,stimuli/RedFrame.bmp,1,Happy,Male,3,1,1.0,344.4173278808594,344.4173278808594,0.0,348.40716552734375,348.40716552734375,0.0,347.4242858886719,347.4242858886719,0.0,1.0,1.0,0.0,'1',0.7488889098167419,0.7488889098167419,0.0,82.0
Happy,stimuli/43M_HA_O.BMP,stimuli/42M_HA_O.BMP,stimuli/43M_HA_O.BMP,stimuli/EmptyFrame.bmp,stimuli/RedFrame.bmp,2,Happy,Male,3,1,1.0,348.4330749511719,348.4330749511719,0.0,352.4200744628906,352.4200744628906,0.0,351.4296569824219,351.4296569824219,0.0,1.0,1.0,0.0,'2',0.6848511099815369,0.6848511099815369,0.0,83.0
Happy,stimuli/11F_HA_O.BMP,stimuli/10F_HA_O.BMP,stimuli/11F_HA_O.BMP,stimuli/EmptyFrame.bmp,stimuli/RedFrame.bmp,2,Happy,Female,3,1,1.0,352.4502258300781,352.4502258300781,0.0,356.4351501464844,356.4351501464844,0.0,355.4478759765625,355.4478759765625,0.0,1.0,1.0,0.0,'2',0.6990998983383179,0.6990998983383179,0.0,84.0
Happy,stimuli/17F_HA_O.BMP,stimuli/16F_HA_O.BMP,stimuli/17F_HA_O.BMP,stimuli/EmptyFrame.bmp,stimuli/RedFrame.bmp,2,Happy,Female,3,1,1.0,356.4969787597656,356.4969787597656,0.0,360.4521789550781,360.4521789550781,0.0,359.4604187011719,359.4604187011719,0.0,1.0,1.0,0.0,'2',1.123684048652649,1.123684048652649,0.0,85.0
Happy,stimuli/15F_HA_O.BMP,stimuli/15F_HA_O.BMP,stimuli/14F_HA_O.BMP,stimuli/EmptyFrame.bmp,stimuli/RedFrame.bmp,1,Happy,Female,3,1,1.0,360.51605224609375,360.51605224609375,0.0,364.47174072265625,364.47174072265625,0.0,363.4786682128906,363.4786682128906,0.0,1.0,1.0,0.0,'1',0.8669912815093994,0.8669912815093994,0.0,86.0
Happy,stimuli/08F_HA_O.BMP,stimuli/08F_HA_O.BMP,stimuli/09F_HA_O.BMP,stimuli/EmptyFrame.bmp,stimuli/RedFrame.bmp,1,Happy,Female,3,1,1.0,364.50238037109375,364.50238037109375,0.0,368.485107421875,368.485107421875,0.0,367.4949645996094,367.4949645996094,0.0,1.0,1.0,0.0,'1',0.9164819717407227,0.9164819717407227,0.0,87.0
MatchFaces,stimuli/MatchFaces.bmp,stimuli/EmptyFace.bmp,stimuli/EmptyFace.bmp,stimuli/EmptyFrame.bmp,stimuli/EmptyFrame.bmp,Null,None,None,3,1,1.0,368.650146484375,368.650146484375,0.0,372.4884948730469,372.4884948730469,0.0,371.4991149902344,371.4991149902344,0.0,0.0,0.0,0.0,,,,,88.0
Fear,stimuli/34M_FE_O.BMP,stimuli/34M_FE_O.BMP,stimuli/33M_FE_O.BMP,stimuli/EmptyFrame.bmp,stimuli/RedFrame.bmp,1,Fear,Male,3,1,1.0,372.5945129394531,372.5945129394531,0.0,376.50701904296875,376.50701904296875,0.0,375.51458740234375,375.51458740234375,0.0,1.0,1.0,0.0,'1',0.7848516702651978,0.7848516702651978,0.0,89.0
Fear,stimuli/28M_FE_O.BMP,stimuli/28M_FE_O.BMP,stimuli/25M_FE_O.BMP,stimuli/EmptyFrame.bmp,stimuli/RedFrame.bmp,1,Fear,Male,3,1,1.0,376.5312805175781,376.5312805175781,0.0,380.5253601074219,380.5253601074219,0.0,379.5537414550781,379.5537414550781,0.0,1.0,1.0,0.0,'1',0.8273447751998901,0.8273447751998901,0.0,90.0
Fear,stimuli/11F_FE_O.BMP,stimuli/10F_FE_O.BMP,stimuli/11F_FE_O.BMP,stimuli/EmptyFrame.bmp,stimuli/RedFrame.bmp,2,Fear,Female,3,1,1.0,380.5490417480469,380.5490417480469,0.0,384.55120849609375,384.55120849609375,0.0,383.5545959472656,383.5545959472656,0.0,1.0,1.0,0.0,'2',0.6805968284606934,0.6805968284606934,0.0,91.0
Fear,stimuli/27M_FE_O.BMP,stimuli/26M_FE_O.BMP,stimuli/27M_FE_O.BMP,stimuli/EmptyFrame.bmp,stimuli/RedFrame.bmp,2,Fear,Male,3,1,1.0,384.5783996582031,384.5783996582031,0.0,388.5721435546875,388.5721435546875,0.0,387.58746337890625,387.58746337890625,0.0,1.0,1.0,0.0,'2',0.8027905225753784,0.8027905225753784,0.0,92.0
Fear,stimuli/11F_FE_O.BMP,stimuli/12F_FE_O.BMP,stimuli/11F_FE_O.BMP,stimuli/EmptyFrame.bmp,stimuli/RedFrame.bmp,2,Fear,Female,3,1,1.0,388.59710693359375,388.59710693359375,0.0,392.6380615234375,392.6380615234375,0.0,391.6033020019531,391.6033020019531,0.0,1.0,1.0,0.0,'2',0.9903848171234131,0.9903848171234131,0.0,93.0
Fear,stimuli/31M_FE_O.BMP,stimuli/31M_FE_O.BMP,stimuli/38M_FE_O.BMP,stimuli/EmptyFrame.bmp,stimuli/RedFrame.bmp,1,Fear,Male,3,1,1.0,392.6715087890625,392.6715087890625,0.0,396.6556091308594,396.6556091308594,0.0,395.67498779296875,395.67498779296875,0.0,1.0,1.0,0.0,'1',0.775260329246521,0.775260329246521,0.0,94.0
Fear,stimuli/29M_FE_O.BMP,stimuli/29M_FE_O.BMP,stimuli/24M_FE_O.BMP,stimuli/EmptyFrame.bmp,stimuli/RedFrame.bmp,1,Fear,Male,3,1,1.0,396.67425537109375,396.67425537109375,0.0,400.67657470703125,400.67657470703125,0.0,399.6799621582031,399.6799621582031,0.0,1.0,1.0,0.0,'1',0.8330274820327759,0.8330274820327759,0.0,95.0
Fear,stimuli/25M_FE_O.BMP,stimuli/29M_FE_O.BMP,stimuli/25M_FE_O.BMP,stimuli/EmptyFrame.bmp,stimuli/RedFrame.bmp,2,Fear,Male,3,1,1.0,400.6980285644531,400.6980285644531,0.0,404.6890869140625,404.6890869140625,0.0,403.6979675292969,403.6979675292969,0.0,1.0,1.0,0.0,'2',0.7668492197990417,0.7668492197990417,0.0,96.0
Fear,stimuli/15F_FE_O.BMP,stimuli/18F_FE_O.BMP,stimuli/15F_FE_O.BMP,stimuli/EmptyFrame.bmp,stimuli/RedFrame.bmp,2,Fear,Female,3,1,1.0,404.711181640625,404.711181640625,0.0,408.699951171875,408.699951171875,0.0,407.7192687988281,407.7192687988281,0.0,1.0,1.0,0.0,'2',0.734723687171936,0.734723687171936,0.0,97.0
Fear,stimuli/09F_FE_O.BMP,stimuli/09F_FE_O.BMP,stimuli/12F_FE_O.BMP,stimuli/EmptyFrame.bmp,stimuli/RedFrame.bmp,1,Fear,Female,3,1,1.0,408.7218322753906,408.7218322753906,0.0,412.7213439941406,412.7213439941406,0.0,411.7207946777344,411.7207946777344,0.0,1.0,1.0,0.0,'1',0.7284284234046936,0.7284284234046936,0.0,98.0
MatchFaces,stimuli/MatchFaces.bmp,stimuli/EmptyFace.bmp,stimuli/EmptyFace.bmp,stimuli/EmptyFrame.bmp,stimuli/EmptyFrame.bmp,Null,None,None,3,1,1.0,412.9289245605469,412.9289245605469,0.0,416.7283020019531,416.7283020019531,0.0,415.73406982421875,415.73406982421875,0.0,0.0,0.0,0.0,,,,,99.0
Anger,stimuli/23M_AN_O.BMP,stimuli/23M_AN_O.BMP,stimuli/31M_AN_O.BMP,stimuli/EmptyFrame.bmp,stimuli/RedFrame.bmp,1,Anger,Male,3,1,1.0,416.7887268066406,416.7887268066406,0.0,420.75390625,420.75390625,0.0,419.7527160644531,419.7527160644531,0.0,1.0,1.0,0.0,'1',0.7216134071350098,0.7216134071350098,0.0,100.0
Anger,stimuli/36M_AN_O.BMP,stimuli/37M_AN_O.BMP,stimuli/36M_AN_O.BMP,stimuli/EmptyFrame.bmp,stimuli/RedFrame.bmp,2,Anger,Male,3,1,1.0,420.78167724609375,420.78167724609375,0.0,424.76763916015625,424.76763916015625,0.0,423.7805480957031,423.7805480957031,0.0,1.0,1.0,0.0,'2',0.631834089756012,0.631834089756012,0.0,101.0
Anger,stimuli/38M_AN_O.BMP,stimuli/39M_AN_O.BMP,stimuli/38M_AN_O.BMP,stimuli/EmptyFrame.bmp,stimuli/RedFrame.bmp,2,Anger,Male,3,1,1.0,424.7935791015625,424.7935791015625,0.0,428.78564453125,428.78564453125,0.0,427.7906188964844,427.7906188964844,0.0,1.0,1.0,0.0,'2',0.784813404083252,0.784813404083252,0.0,102.0
Anger,stimuli/02f_an_o.bmp,stimuli/18F_AN_O.BMP,stimuli/02f_an_o.bmp,stimuli/EmptyFrame.bmp,stimuli/RedFrame.bmp,2,Anger,Female,3,1,1.0,428.8164978027344,428.8164978027344,0.0,432.80523681640625,432.80523681640625,0.0,431.8157653808594,431.8157653808594,0.0,1.0,1.0,0.0,'2',0.6947280764579773,0.6947280764579773,0.0,103.0
Anger,stimuli/22M_AN_O.BMP,stimuli/32M_AN_O.BMP,stimuli/22M_AN_O.BMP,stimuli/EmptyFrame.bmp,stimuli/RedFrame.bmp,2,Anger,Male,3,1,1.0,432.83111572265625,432.83111572265625,0.0,436.8181457519531,436.8181457519531,0.0,435.8346252441406,435.8346252441406,0.0,1.0,1.0,0.0,'2',0.7111272811889648,0.7111272811889648,0.0,104.0
Anger,stimuli/12F_AN_O.BMP,stimuli/12F_AN_O.BMP,stimuli/13F_AN_O.BMP,stimuli/EmptyFrame.bmp,stimuli/RedFrame.bmp,1,Anger,Female,3,1,1.0,436.8381652832031,436.8381652832031,0.0,440.83612060546875,440.83612060546875,0.0,439.8473205566406,439.8473205566406,0.0,1.0,1.0,0.0,'1',0.7876647114753723,0.7876647114753723,0.0,105.0
Anger,stimuli/05F_AN_O.bmp,stimuli/05F_AN_O.bmp,stimuli/16F_AN_O.BMP,stimuli/EmptyFrame.bmp,stimuli/RedFrame.bmp,1,Anger,Female,3,1,1.0,440.86590576171875,440.86590576171875,0.0,444.84820556640625,444.84820556640625,0.0,443.8716125488281,443.8716125488281,0.0,1.0,1.0,0.0,'1',0.73335200548172,0.73335200548172,0.0,106.0
Anger,stimuli/21M_AN_O.BMP,stimuli/21M_AN_O.BMP,stimuli/33M_AN_O.BMP,stimuli/EmptyFrame.bmp,stimuli/RedFrame.bmp,1,Anger,Male,3,1,1.0,444.87530517578125,444.87530517578125,0.0,448.8648986816406,448.8648986816406,0.0,447.8746032714844,447.8746032714844,0.0,1.0,1.0,0.0,'1',0.7619701027870178,0.7619701027870178,0.0,107.0
Anger,stimuli/07F_AN_O.BMP,stimuli/07F_AN_O.BMP,stimuli/14F_AN_O.BMP,stimuli/EmptyFrame.bmp,stimuli/RedFrame.bmp,1,Anger,Female,3,1,1.0,448.8929748535156,448.8929748535156,0.0,452.88720703125,452.88720703125,0.0,451.8935852050781,451.8935852050781,0.0,1.0,1.0,0.0,'1',0.6998671293258667,0.6998671293258667,0.0,108.0
Anger,stimuli/10F_AN_O.BMP,stimuli/10F_AN_O.BMP,stimuli/11F_AN_O.BMP,stimuli/EmptyFrame.bmp,stimuli/RedFrame.bmp,1,Anger,Female,3,1,1.0,452.9168395996094,452.9168395996094,0.0,456.90606689453125,456.90606689453125,0.0,455.9164733886719,455.9164733886719,0.0,1.0,1.0,0.0,'1',0.6502805948257446,0.6502805948257446,0.0,109.0

extraInfo
participant,sub011
session,002
date,2025_Jun_11_0858
expName,HaririTask_Ver2
psychopyVersion,3.0.1
frameRate,None
