TrialType,Top,Left,Right,EmptyFrame,SelectedFrame,Correct,Emotion,Gender,TrialLength,FixationLength,n,GCFaceStartTime_mean,GCFaceStartTime_raw,GCFaceStartTime_std,GCPostFaceFixationEndTime_mean,GCPostFaceFixationEndTime_raw,GCPostFaceFixationEndTime_std,GCPostFaceFixationStartTime_mean,GCPostFaceFixationStartTime_raw,GCPostFaceFixationStartTime_std,key_resp_trial.corr_mean,key_resp_trial.corr_raw,key_resp_trial.corr_std,key_resp_trial.keys_raw,key_resp_trial.rt_mean,key_resp_trial.rt_raw,key_resp_trial.rt_std,order
MatchFaces,stimuli/MatchFaces.bmp,stimuli/EmptyFace.bmp,stimuli/EmptyFace.bmp,stimuli/EmptyFrame.bmp,stimuli/EmptyFrame.bmp,Null,None,None,3,1,1.0,15.160139083862305,15.160139083862305,0.0,19.030485153198242,19.030485153198242,0.0,18.041431427001953,18.041431427001953,0.0,0.0,0.0,0.0,,,,,0.0
Anger,stimuli/01F_AN_O.bmp,stimuli/19F_AN_O.BMP,stimuli/01F_AN_O.bmp,stimuli/EmptyFrame.bmp,stimuli/RedFrame.bmp,2,Anger,Female,3,1,1.0,19.16659164428711,19.16659164428711,0.0,23.049768447875977,23.049768447875977,0.0,22.054615020751953,22.054615020751953,0.0,1.0,1.0,0.0,'2',0.540216326713562,0.540216326713562,0.0,1.0
Anger,stimuli/02f_an_o.bmp,stimuli/18F_AN_O.BMP,stimuli/02f_an_o.bmp,stimuli/EmptyFrame.bmp,stimuli/RedFrame.bmp,2,Anger,Female,3,1,1.0,23.071691513061523,23.071691513061523,0.0,27.063833236694336,27.063833236694336,0.0,26.07756805419922,26.07756805419922,0.0,1.0,1.0,0.0,'2',0.7037826180458069,0.7037826180458069,0.0,2.0
Anger,stimuli/20M_AN_O.BMP,stimuli/34M_AN_O.BMP,stimuli/20M_AN_O.BMP,stimuli/EmptyFrame.bmp,stimuli/RedFrame.bmp,2,Anger,Male,3,1,1.0,27.08837127685547,27.08837127685547,0.0,31.075084686279297,31.075084686279297,0.0,30.089982986450195,30.089982986450195,0.0,1.0,1.0,0.0,'2',0.6277933716773987,0.6277933716773987,0.0,3.0
Anger,stimuli/03F_AN_O.bmp,stimuli/03F_AN_O.bmp,stimuli/17F_AN_O.BMP,stimuli/EmptyFrame.bmp,stimuli/RedFrame.bmp,1,Anger,Female,3,1,1.0,31.101024627685547,31.101024627685547,0.0,35.088783264160156,35.088783264160156,0.0,34.10691452026367,34.10691452026367,0.0,1.0,1.0,0.0,'1',0.5731847882270813,0.5731847882270813,0.0,4.0
Anger,stimuli/21M_AN_O.BMP,stimuli/21M_AN_O.BMP,stimuli/33M_AN_O.BMP,stimuli/EmptyFrame.bmp,stimuli/RedFrame.bmp,1,Anger,Male,3,1,1.0,35.11384582519531,35.11384582519531,0.0,39.10691833496094,39.10691833496094,0.0,38.117557525634766,38.117557525634766,0.0,1.0,1.0,0.0,'1',0.5814387202262878,0.5814387202262878,0.0,5.0
Anger,stimuli/22M_AN_O.BMP,stimuli/32M_AN_O.BMP,stimuli/22M_AN_O.BMP,stimuli/EmptyFrame.bmp,stimuli/RedFrame.bmp,2,Anger,Male,3,1,1.0,39.12967300415039,39.12967300415039,0.0,43.11768341064453,43.11768341064453,0.0,42.131019592285156,42.131019592285156,0.0,1.0,1.0,0.0,'2',0.6406378746032715,0.6406378746032715,0.0,6.0
Anger,stimuli/23M_AN_O.BMP,stimuli/23M_AN_O.BMP,stimuli/31M_AN_O.BMP,stimuli/EmptyFrame.bmp,stimuli/RedFrame.bmp,1,Anger,Male,3,1,1.0,43.135799407958984,43.135799407958984,0.0,47.1379280090332,47.1379280090332,0.0,46.14749526977539,46.14749526977539,0.0,1.0,1.0,0.0,'1',0.748529314994812,0.748529314994812,0.0,7.0
Anger,stimuli/05F_AN_O.bmp,stimuli/05F_AN_O.bmp,stimuli/16F_AN_O.BMP,stimuli/EmptyFrame.bmp,stimuli/RedFrame.bmp,1,Anger,Female,3,1,1.0,47.157962799072266,47.157962799072266,0.0,51.149112701416016,51.149112701416016,0.0,50.16450119018555,50.16450119018555,0.0,1.0,1.0,0.0,'1',0.5702657103538513,0.5702657103538513,0.0,8.0
Anger,stimuli/06F_AN_O.bmp,stimuli/15F_AN_O.BMP,stimuli/06F_AN_O.bmp,stimuli/EmptyFrame.bmp,stimuli/RedFrame.bmp,2,Anger,Female,3,1,1.0,51.17344284057617,51.17344284057617,0.0,55.167720794677734,55.167720794677734,0.0,54.18883514404297,54.18883514404297,0.0,1.0,1.0,0.0,'2',0.6008689999580383,0.6008689999580383,0.0,9.0
Anger,stimuli/24M_AN_O.BMP,stimuli/24M_AN_O.BMP,stimuli/30M_AN_O.BMP,stimuli/EmptyFrame.bmp,stimuli/RedFrame.bmp,1,Anger,Male,3,1,1.0,55.19319152832031,55.19319152832031,0.0,59.18193054199219,59.18193054199219,0.0,58.20339584350586,58.20339584350586,0.0,1.0,1.0,0.0,'1',0.5862635970115662,0.5862635970115662,0.0,10.0
MatchShape,stimuli/MatchShapes.bmp,stimuli/EmptyFace.bmp,stimuli/EmptyFace.bmp,stimuli/EmptyFrame.bmp,stimuli/EmptyFrame.bmp,Null,None,None,3,1,1.0,59.209041595458984,59.209041595458984,0.0,63.19223403930664,63.19223403930664,0.0,62.204158782958984,62.204158782958984,0.0,0.0,0.0,0.0,,,,,11.0
Shape,stimuli/horizontal.bmp,stimuli/horizontal.bmp,stimuli/circle.bmp,stimuli/EmptyFrame.bmp,stimuli/RedFrame.bmp,1,Shape,None,3,1,1.0,63.219905853271484,63.219905853271484,0.0,67.20738983154297,67.20738983154297,0.0,66.22289276123047,66.22289276123047,0.0,1.0,1.0,0.0,'1',0.5366266965866089,0.5366266965866089,0.0,12.0
Shape,stimuli/vertical.bmp,stimuli/horizontal.bmp,stimuli/vertical.bmp,stimuli/EmptyFrame.bmp,stimuli/RedFrame.bmp,2,Shape,None,3,1,1.0,67.22632598876953,67.22632598876953,0.0,71.22616577148438,71.22616577148438,0.0,70.23064422607422,70.23064422607422,0.0,1.0,1.0,0.0,'2',0.6497350931167603,0.6497350931167603,0.0,13.0
Shape,stimuli/horizontal.bmp,stimuli/horizontal.bmp,stimuli/vertical.bmp,stimuli/EmptyFrame.bmp,stimuli/RedFrame.bmp,1,Shape,None,3,1,1.0,71.24803924560547,71.24803924560547,0.0,75.25016021728516,75.25016021728516,0.0,74.25018310546875,74.25018310546875,0.0,1.0,1.0,0.0,'1',0.9639167785644531,0.9639167785644531,0.0,14.0
Shape,stimuli/horizontal.bmp,stimuli/circle.bmp,stimuli/horizontal.bmp,stimuli/EmptyFrame.bmp,stimuli/RedFrame.bmp,2,Shape,None,3,1,1.0,75.2796401977539,75.2796401977539,0.0,79.2665786743164,79.2665786743164,0.0,78.27973175048828,78.27973175048828,0.0,1.0,1.0,0.0,'2',0.5315355062484741,0.5315355062484741,0.0,15.0
Shape,stimuli/circle.bmp,stimuli/circle.bmp,stimuli/vertical.bmp,stimuli/EmptyFrame.bmp,stimuli/RedFrame.bmp,1,Shape,None,3,1,1.0,79.2884521484375,79.2884521484375,0.0,83.28070831298828,83.28070831298828,0.0,82.2904052734375,82.2904052734375,0.0,1.0,1.0,0.0,'1',0.5270565152168274,0.5270565152168274,0.0,16.0
Shape,stimuli/circle.bmp,stimuli/circle.bmp,stimuli/horizontal.bmp,stimuli/EmptyFrame.bmp,stimuli/RedFrame.bmp,1,Shape,None,3,1,1.0,83.30488586425781,83.30488586425781,0.0,87.29679107666016,87.29679107666016,0.0,86.30065155029297,86.30065155029297,0.0,1.0,1.0,0.0,'1',0.5581511855125427,0.5581511855125427,0.0,17.0
Shape,stimuli/vertical.bmp,stimuli/circle.bmp,stimuli/vertical.bmp,stimuli/EmptyFrame.bmp,stimuli/RedFrame.bmp,2,Shape,None,3,1,1.0,87.31700897216797,87.31700897216797,0.0,91.3157958984375,91.3157958984375,0.0,90.3288803100586,90.3288803100586,0.0,1.0,1.0,0.0,'2',0.6002646088600159,0.6002646088600159,0.0,18.0
Shape,stimuli/circle.bmp,stimuli/vertical.bmp,stimuli/circle.bmp,stimuli/EmptyFrame.bmp,stimuli/RedFrame.bmp,2,Shape,None,3,1,1.0,91.34150695800781,91.34150695800781,0.0,95.32463836669922,95.32463836669922,0.0,94.33721160888672,94.33721160888672,0.0,1.0,1.0,0.0,'2',0.5989242792129517,0.5989242792129517,0.0,19.0
Shape,stimuli/vertical.bmp,stimuli/horizontal.bmp,stimuli/vertical.bmp,stimuli/EmptyFrame.bmp,stimuli/RedFrame.bmp,2,Shape,None,3,1,1.0,95.35136413574219,95.35136413574219,0.0,99.33419036865234,99.33419036865234,0.0,98.35661315917969,98.35661315917969,0.0,1.0,1.0,0.0,'2',0.7622681856155396,0.7622681856155396,0.0,20.0
Shape,stimuli/vertical.bmp,stimuli/vertical.bmp,stimuli/circle.bmp,stimuli/EmptyFrame.bmp,stimuli/RedFrame.bmp,1,Shape,None,3,1,1.0,99.35596466064453,99.35596466064453,0.0,103.34510040283203,103.34510040283203,0.0,102.36048889160156,102.36048889160156,0.0,1.0,1.0,0.0,'1',0.566958487033844,0.566958487033844,0.0,21.0
MatchFaces,stimuli/MatchFaces.bmp,stimuli/EmptyFace.bmp,stimuli/EmptyFace.bmp,stimuli/EmptyFrame.bmp,stimuli/EmptyFrame.bmp,Null,None,None,3,1,1.0,103.47579956054688,103.47579956054688,0.0,107.34813690185547,107.34813690185547,0.0,106.37165832519531,106.37165832519531,0.0,0.0,0.0,0.0,,,,,22.0
Neutral,stimuli/20M_NE_C.BMP,stimuli/21M_NE_C.BMP,stimuli/20M_NE_C.BMP,stimuli/EmptyFrame.bmp,stimuli/RedFrame.bmp,2,Neutral,Male,3,1,1.0,107.40625762939453,107.40625762939453,0.0,111.3592529296875,111.3592529296875,0.0,110.38093566894531,110.38093566894531,0.0,1.0,1.0,0.0,'2',0.9895228147506714,0.9895228147506714,0.0,23.0
Neutral,stimuli/01F_NE_C.bmp,stimuli/01F_NE_C.bmp,stimuli/02F_NE_C.bmp,stimuli/EmptyFrame.bmp,stimuli/RedFrame.bmp,1,Neutral,Female,3,1,1.0,111.38792419433594,111.38792419433594,0.0,115.38166809082031,115.38166809082031,0.0,114.39414978027344,114.39414978027344,0.0,1.0,1.0,0.0,'1',0.5450965166091919,0.5450965166091919,0.0,24.0
Neutral,stimuli/22M_NE_C.BMP,stimuli/23M_NE_C.BMP,stimuli/22M_NE_C.BMP,stimuli/EmptyFrame.bmp,stimuli/RedFrame.bmp,2,Neutral,Male,3,1,1.0,115.44519805908203,115.44519805908203,0.0,119.40125274658203,119.40125274658203,0.0,118.40975189208984,118.40975189208984,0.0,1.0,1.0,0.0,'2',0.6885377168655396,0.6885377168655396,0.0,25.0
Neutral,stimuli/24M_NE_C.BMP,stimuli/24M_NE_C.BMP,stimuli/25M_NE_C.BMP,stimuli/EmptyFrame.bmp,stimuli/RedFrame.bmp,1,Neutral,Male,3,1,1.0,119.42874145507812,119.42874145507812,0.0,123.41690826416016,123.41690826416016,0.0,122.43336486816406,122.43336486816406,0.0,1.0,1.0,0.0,'1',0.5819113850593567,0.5819113850593567,0.0,26.0
Neutral,stimuli/03F_NE_C.bmp,stimuli/05F_NE_C.bmp,stimuli/03F_NE_C.bmp,stimuli/EmptyFrame.bmp,stimuli/RedFrame.bmp,2,Neutral,Female,3,1,1.0,123.44474792480469,123.44474792480469,0.0,127.43392181396484,127.43392181396484,0.0,126.44920349121094,126.44920349121094,0.0,1.0,1.0,0.0,'2',0.6213473081588745,0.6213473081588745,0.0,27.0
Neutral,stimuli/26M_NE_C.BMP,stimuli/26M_NE_C.BMP,stimuli/27M_NE_C.BMP,stimuli/EmptyFrame.bmp,stimuli/RedFrame.bmp,1,Neutral,Male,3,1,1.0,127.46489715576172,127.46489715576172,0.0,131.45152282714844,131.45152282714844,0.0,130.4570770263672,130.4570770263672,0.0,1.0,1.0,0.0,'1',0.666624903678894,0.666624903678894,0.0,28.0
Neutral,stimuli/06F_NE_C.bmp,stimuli/07F_NE_C.BMP,stimuli/06F_NE_C.bmp,stimuli/EmptyFrame.bmp,stimuli/RedFrame.bmp,2,Neutral,Female,3,1,1.0,131.50868225097656,131.50868225097656,0.0,135.46896362304688,135.46896362304688,0.0,134.4750213623047,134.4750213623047,0.0,1.0,1.0,0.0,'2',0.6415737867355347,0.6415737867355347,0.0,29.0
Neutral,stimuli/08F_NE_C.BMP,stimuli/08F_NE_C.BMP,stimuli/09F_NE_C.BMP,stimuli/EmptyFrame.bmp,stimuli/RedFrame.bmp,1,Neutral,Female,3,1,1.0,135.49267578125,135.49267578125,0.0,139.4844512939453,139.4844512939453,0.0,138.5050506591797,138.5050506591797,0.0,1.0,1.0,0.0,'1',0.7200618982315063,0.7200618982315063,0.0,30.0
Neutral,stimuli/28M_NE_C.BMP,stimuli/29M_NE_C.BMP,stimuli/28M_NE_C.BMP,stimuli/EmptyFrame.bmp,stimuli/RedFrame.bmp,2,Neutral,Male,3,1,1.0,139.50979614257812,139.50979614257812,0.0,143.49978637695312,143.49978637695312,0.0,142.5134735107422,142.5134735107422,0.0,1.0,1.0,0.0,'2',0.6083279848098755,0.6083279848098755,0.0,31.0
Neutral,stimuli/10F_NE_C.BMP,stimuli/10F_NE_C.BMP,stimuli/06F_NE_C.bmp,stimuli/EmptyFrame.bmp,stimuli/RedFrame.bmp,1,Neutral,Female,3,1,1.0,143.5249481201172,143.5249481201172,0.0,147.51112365722656,147.51112365722656,0.0,146.5254364013672,146.5254364013672,0.0,1.0,1.0,0.0,'1',0.5692747235298157,0.5692747235298157,0.0,32.0
MatchFaces,stimuli/MatchFaces.bmp,stimuli/EmptyFace.bmp,stimuli/EmptyFace.bmp,stimuli/EmptyFrame.bmp,stimuli/EmptyFrame.bmp,Null,None,None,3,1,1.0,147.63760375976562,147.63760375976562,0.0,151.5245819091797,151.5245819091797,0.0,150.52960205078125,150.52960205078125,0.0,0.0,0.0,0.0,,,,,33.0
Fear,stimuli/07F_FE_O.BMP,stimuli/07F_FE_O.BMP,stimuli/14F_FE_O.BMP,stimuli/EmptyFrame.bmp,stimuli/RedFrame.bmp,1,Fear,Female,3,1,1.0,151.6041717529297,151.6041717529297,0.0,155.54832458496094,155.54832458496094,0.0,154.55113220214844,154.55113220214844,0.0,1.0,1.0,0.0,'1',0.6407809257507324,0.6407809257507324,0.0,34.0
Fear,stimuli/25M_FE_O.BMP,stimuli/29M_FE_O.BMP,stimuli/25M_FE_O.BMP,stimuli/EmptyFrame.bmp,stimuli/RedFrame.bmp,2,Fear,Male,3,1,1.0,155.57553100585938,155.57553100585938,0.0,159.56729125976562,159.56729125976562,0.0,158.578857421875,158.578857421875,0.0,1.0,1.0,0.0,'2',0.7236315011978149,0.7236315011978149,0.0,35.0
Fear,stimuli/26M_FE_O.BMP,stimuli/26M_FE_O.BMP,stimuli/28M_FE_O.BMP,stimuli/EmptyFrame.bmp,stimuli/RedFrame.bmp,1,Fear,Male,3,1,1.0,159.59225463867188,159.59225463867188,0.0,163.5914764404297,163.5914764404297,0.0,162.6047821044922,162.6047821044922,0.0,1.0,1.0,0.0,'1',0.5540698170661926,0.5540698170661926,0.0,36.0
Fear,stimuli/08F_FE_O.BMP,stimuli/13F_FE_O.BMP,stimuli/08F_FE_O.BMP,stimuli/EmptyFrame.bmp,stimuli/RedFrame.bmp,2,Fear,Female,3,1,1.0,163.6207733154297,163.6207733154297,0.0,167.60671997070312,167.60671997070312,0.0,166.6173095703125,166.6173095703125,0.0,1.0,1.0,0.0,'2',0.6726967096328735,0.6726967096328735,0.0,37.0
Fear,stimuli/09F_FE_O.BMP,stimuli/09F_FE_O.BMP,stimuli/12F_FE_O.BMP,stimuli/EmptyFrame.bmp,stimuli/RedFrame.bmp,1,Fear,Female,3,1,1.0,167.67239379882812,167.67239379882812,0.0,171.6161346435547,171.6161346435547,0.0,170.6303253173828,170.6303253173828,0.0,1.0,1.0,0.0,'1',0.5224916934967041,0.5224916934967041,0.0,38.0
Fear,stimuli/27M_FE_O.BMP,stimuli/26M_FE_O.BMP,stimuli/27M_FE_O.BMP,stimuli/EmptyFrame.bmp,stimuli/RedFrame.bmp,2,Fear,Male,3,1,1.0,171.64422607421875,171.64422607421875,0.0,175.62893676757812,175.62893676757812,0.0,174.64785766601562,174.64785766601562,0.0,1.0,1.0,0.0,'2',0.5404154062271118,0.5404154062271118,0.0,39.0
Fear,stimuli/28M_FE_O.BMP,stimuli/28M_FE_O.BMP,stimuli/25M_FE_O.BMP,stimuli/EmptyFrame.bmp,stimuli/RedFrame.bmp,1,Fear,Male,3,1,1.0,175.65232849121094,175.65232849121094,0.0,179.6461639404297,179.6461639404297,0.0,178.66014099121094,178.66014099121094,0.0,1.0,1.0,0.0,'1',0.7299132943153381,0.7299132943153381,0.0,40.0
Fear,stimuli/10F_FE_O.BMP,stimuli/11F_FE_O.BMP,stimuli/10F_FE_O.BMP,stimuli/EmptyFrame.bmp,stimuli/RedFrame.bmp,2,Fear,Female,3,1,1.0,179.6720428466797,179.6720428466797,0.0,183.65618896484375,183.65618896484375,0.0,182.6714630126953,182.6714630126953,0.0,1.0,1.0,0.0,'2',0.5235146284103394,0.5235146284103394,0.0,41.0
Fear,stimuli/29M_FE_O.BMP,stimuli/29M_FE_O.BMP,stimuli/24M_FE_O.BMP,stimuli/EmptyFrame.bmp,stimuli/RedFrame.bmp,1,Fear,Male,3,1,1.0,183.67893981933594,183.67893981933594,0.0,187.6703338623047,187.6703338623047,0.0,186.68072509765625,186.68072509765625,0.0,1.0,1.0,0.0,'1',0.5542705059051514,0.5542705059051514,0.0,42.0
Fear,stimuli/11F_FE_O.BMP,stimuli/10F_FE_O.BMP,stimuli/11F_FE_O.BMP,stimuli/EmptyFrame.bmp,stimuli/RedFrame.bmp,2,Fear,Female,3,1,1.0,187.69696044921875,187.69696044921875,0.0,191.68553161621094,191.68553161621094,0.0,190.69329833984375,190.69329833984375,0.0,1.0,1.0,0.0,'2',0.5830020904541016,0.5830020904541016,0.0,43.0
MatchFaces,stimuli/MatchFaces.bmp,stimuli/EmptyFace.bmp,stimuli/EmptyFace.bmp,stimuli/EmptyFrame.bmp,stimuli/EmptyFrame.bmp,Null,None,None,3,1,1.0,191.82391357421875,191.82391357421875,0.0,195.68714904785156,195.68714904785156,0.0,194.69383239746094,194.69383239746094,0.0,0.0,0.0,0.0,,,,,44.0
Happy,stimuli/19F_HA_O.BMP,stimuli/19F_HA_O.BMP,stimuli/18F_HA_O.BMP,stimuli/EmptyFrame.bmp,stimuli/RedFrame.bmp,1,Happy,Female,3,1,1.0,195.73358154296875,195.73358154296875,0.0,199.71282958984375,199.71282958984375,0.0,198.7113800048828,198.7113800048828,0.0,1.0,1.0,0.0,'1',0.742670476436615,0.742670476436615,0.0,45.0
Happy,stimuli/17F_HA_O.BMP,stimuli/16F_HA_O.BMP,stimuli/17F_HA_O.BMP,stimuli/EmptyFrame.bmp,stimuli/RedFrame.bmp,2,Happy,Female,3,1,1.0,199.7743682861328,199.7743682861328,0.0,203.7273712158203,203.7273712158203,0.0,202.7359619140625,202.7359619140625,0.0,1.0,1.0,0.0,'2',0.5439587235450745,0.5439587235450745,0.0,46.0
Happy,stimuli/43M_HA_O.BMP,stimuli/42M_HA_O.BMP,stimuli/43M_HA_O.BMP,stimuli/EmptyFrame.bmp,stimuli/RedFrame.bmp,2,Happy,Male,3,1,1.0,203.75608825683594,203.75608825683594,0.0,207.74398803710938,207.74398803710938,0.0,206.75926208496094,206.75926208496094,0.0,1.0,1.0,0.0,'2',0.6641305088996887,0.6641305088996887,0.0,47.0
Happy,stimuli/41M_HA_O.BMP,stimuli/41M_HA_O.BMP,stimuli/40M_HA_O.BMP,stimuli/EmptyFrame.bmp,stimuli/RedFrame.bmp,1,Happy,Male,3,1,1.0,207.7720947265625,207.7720947265625,0.0,211.75836181640625,211.75836181640625,0.0,210.77659606933594,210.77659606933594,0.0,1.0,1.0,0.0,'1',0.7205935120582581,0.7205935120582581,0.0,48.0
Happy,stimuli/15F_HA_O.BMP,stimuli/15F_HA_O.BMP,stimuli/14F_HA_O.BMP,stimuli/EmptyFrame.bmp,stimuli/RedFrame.bmp,1,Happy,Female,3,1,1.0,211.78782653808594,211.78782653808594,0.0,215.77052307128906,215.77052307128906,0.0,214.77952575683594,214.77952575683594,0.0,1.0,1.0,0.0,'1',0.7687416076660156,0.7687416076660156,0.0,49.0
Happy,stimuli/13F_HA_O.BMP,stimuli/13F_HA_O.BMP,stimuli/12F_HA_O.BMP,stimuli/EmptyFrame.bmp,stimuli/RedFrame.bmp,1,Happy,Female,3,1,1.0,215.7959442138672,215.7959442138672,0.0,219.78834533691406,219.78834533691406,0.0,218.8022918701172,218.8022918701172,0.0,1.0,1.0,0.0,'1',0.6939978003501892,0.6939978003501892,0.0,50.0
Happy,stimuli/39M_HA_O.BMP,stimuli/38M_HA_O.BMP,stimuli/39M_HA_O.BMP,stimuli/EmptyFrame.bmp,stimuli/RedFrame.bmp,2,Happy,Male,3,1,1.0,219.81143188476562,219.81143188476562,0.0,223.80899047851562,223.80899047851562,0.0,222.81900024414062,222.81900024414062,0.0,1.0,1.0,0.0,'2',0.5842229723930359,0.5842229723930359,0.0,51.0
Happy,stimuli/37M_HA_O.BMP,stimuli/37M_HA_O.BMP,stimuli/36M_HA_O.BMP,stimuli/EmptyFrame.bmp,stimuli/RedFrame.bmp,1,Happy,Male,3,1,1.0,223.83973693847656,223.83973693847656,0.0,227.82118225097656,227.82118225097656,0.0,226.84303283691406,226.84303283691406,0.0,1.0,1.0,0.0,'1',0.6845400929450989,0.6845400929450989,0.0,52.0
Happy,stimuli/35M_HA_O.BMP,stimuli/34M_HA_O.BMP,stimuli/35M_HA_O.BMP,stimuli/EmptyFrame.bmp,stimuli/RedFrame.bmp,2,Happy,Male,3,1,1.0,227.84765625,227.84765625,0.0,231.83450317382812,231.83450317382812,0.0,230.8563995361328,230.8563995361328,0.0,1.0,1.0,0.0,'2',0.5579444169998169,0.5579444169998169,0.0,53.0
Happy,stimuli/11F_HA_O.BMP,stimuli/10F_HA_O.BMP,stimuli/11F_HA_O.BMP,stimuli/EmptyFrame.bmp,stimuli/RedFrame.bmp,2,Happy,Female,3,1,1.0,231.8636474609375,231.8636474609375,0.0,235.8480224609375,235.8480224609375,0.0,234.86398315429688,234.86398315429688,0.0,1.0,1.0,0.0,'2',0.5838993787765503,0.5838993787765503,0.0,54.0
Match Shape,stimuli/MatchShapes.bmp,stimuli/EmptyFace.bmp,stimuli/EmptyFace.bmp,stimuli/EmptyFrame.bmp,stimuli/EmptyFrame.bmp,Null,None,None,3,1,1.0,235.8716583251953,235.8716583251953,0.0,239.859130859375,239.859130859375,0.0,238.85963439941406,238.85963439941406,0.0,0.0,0.0,0.0,,,,,55.0
Shape,stimuli/circle.bmp,stimuli/vertical.bmp,stimuli/circle.bmp,stimuli/EmptyFrame.bmp,stimuli/RedFrame.bmp,2,Shape,None,3,1,1.0,239.89193725585938,239.89193725585938,0.0,243.877197265625,243.877197265625,0.0,242.8911590576172,242.8911590576172,0.0,1.0,1.0,0.0,'2',0.5665872097015381,0.5665872097015381,0.0,56.0
Shape,stimuli/horizontal.bmp,stimuli/circle.bmp,stimuli/horizontal.bmp,stimuli/EmptyFrame.bmp,stimuli/RedFrame.bmp,2,Shape,None,3,1,1.0,243.90164184570312,243.90164184570312,0.0,247.89552307128906,247.89552307128906,0.0,246.9018096923828,246.9018096923828,0.0,1.0,1.0,0.0,'2',0.6269837021827698,0.6269837021827698,0.0,57.0
Shape,stimuli/vertical.bmp,stimuli/vertical.bmp,stimuli/horizontal.bmp,stimuli/EmptyFrame.bmp,stimuli/RedFrame.bmp,1,Shape,None,3,1,1.0,247.91659545898438,247.91659545898438,0.0,251.91433715820312,251.91433715820312,0.0,250.9165802001953,250.9165802001953,0.0,1.0,1.0,0.0,'1',0.9425444006919861,0.9425444006919861,0.0,58.0
Shape,stimuli/horizontal.bmp,stimuli/circle.bmp,stimuli/horizontal.bmp,stimuli/EmptyFrame.bmp,stimuli/RedFrame.bmp,2,Shape,None,3,1,1.0,251.93540954589844,251.93540954589844,0.0,255.9334259033203,255.9334259033203,0.0,254.94229125976562,254.94229125976562,0.0,1.0,1.0,0.0,'2',0.5728046894073486,0.5728046894073486,0.0,59.0
Shape,stimuli/horizontal.bmp,stimuli/horizontal.bmp,stimuli/vertical.bmp,stimuli/EmptyFrame.bmp,stimuli/RedFrame.bmp,1,Shape,None,3,1,1.0,255.954345703125,255.954345703125,0.0,259.95159912109375,259.95159912109375,0.0,258.9576110839844,258.9576110839844,0.0,1.0,1.0,0.0,'1',0.8254005908966064,0.8254005908966064,0.0,60.0
Shape,stimuli/vertical.bmp,stimuli/vertical.bmp,stimuli/circle.bmp,stimuli/EmptyFrame.bmp,stimuli/RedFrame.bmp,1,Shape,None,3,1,1.0,259.9734191894531,259.9734191894531,0.0,263.9693908691406,263.9693908691406,0.0,262.9837646484375,262.9837646484375,0.0,1.0,1.0,0.0,'1',0.6246814727783203,0.6246814727783203,0.0,61.0
Shape,stimuli/circle.bmp,stimuli/horizontal.bmp,stimuli/circle.bmp,stimuli/EmptyFrame.bmp,stimuli/RedFrame.bmp,2,Shape,None,3,1,1.0,263.9915771484375,263.9915771484375,0.0,267.98504638671875,267.98504638671875,0.0,267.00848388671875,267.00848388671875,0.0,1.0,1.0,0.0,'2',0.5635660290718079,0.5635660290718079,0.0,62.0
Shape,stimuli/circle.bmp,stimuli/vertical.bmp,stimuli/circle.bmp,stimuli/EmptyFrame.bmp,stimuli/RedFrame.bmp,2,Shape,None,3,1,1.0,268.00823974609375,268.00823974609375,0.0,272.0018005371094,272.0018005371094,0.0,271.0184631347656,271.0184631347656,0.0,1.0,1.0,0.0,'2',0.5356495976448059,0.5356495976448059,0.0,63.0
Shape,stimuli/vertical.bmp,stimuli/vertical.bmp,stimuli/horizontal.bmp,stimuli/EmptyFrame.bmp,stimuli/RedFrame.bmp,1,Shape,None,3,1,1.0,272.024169921875,272.024169921875,0.0,276.02398681640625,276.02398681640625,0.0,275.02496337890625,275.02496337890625,0.0,1.0,1.0,0.0,'1',0.6780989766120911,0.6780989766120911,0.0,64.0
Shape,stimuli/horizontal.bmp,stimuli/horizontal.bmp,stimuli/circle.bmp,stimuli/EmptyFrame.bmp,stimuli/RedFrame.bmp,1,Shape,None,3,1,1.0,276.04498291015625,276.04498291015625,0.0,280.0426025390625,280.0426025390625,0.0,279.05035400390625,279.05035400390625,0.0,1.0,1.0,0.0,'1',0.5850911736488342,0.5850911736488342,0.0,65.0
MatchFaces,stimuli/MatchFaces.bmp,stimuli/EmptyFace.bmp,stimuli/EmptyFace.bmp,stimuli/EmptyFrame.bmp,stimuli/EmptyFrame.bmp,Null,None,None,3,1,1.0,280.1701965332031,280.1701965332031,0.0,284.056396484375,284.056396484375,0.0,283.04974365234375,283.04974365234375,0.0,0.0,0.0,0.0,,,,,66.0
Anger,stimuli/42M_AN_O.BMP,stimuli/42M_AN_O.BMP,stimuli/43M_AN_O.BMP,stimuli/EmptyFrame.bmp,stimuli/RedFrame.bmp,1,Anger,Male,3,1,1.0,284.1083984375,284.1083984375,0.0,288.07513427734375,288.07513427734375,0.0,287.0862731933594,287.0862731933594,0.0,1.0,1.0,0.0,'1',0.6008940935134888,0.6008940935134888,0.0,67.0
Anger,stimuli/07F_AN_O.BMP,stimuli/07F_AN_O.BMP,stimuli/14F_AN_O.BMP,stimuli/EmptyFrame.bmp,stimuli/RedFrame.bmp,1,Anger,Female,3,1,1.0,288.1047668457031,288.1047668457031,0.0,292.09222412109375,292.09222412109375,0.0,291.1024475097656,291.1024475097656,0.0,1.0,1.0,0.0,'1',0.5326159000396729,0.5326159000396729,0.0,68.0
Anger,stimuli/40M_AN_O.BMP,stimuli/41M_AN_O.BMP,stimuli/40M_AN_O.BMP,stimuli/EmptyFrame.bmp,stimuli/RedFrame.bmp,2,Anger,Male,3,1,1.0,292.1235046386719,292.1235046386719,0.0,296.10626220703125,296.10626220703125,0.0,295.1201171875,295.1201171875,0.0,1.0,1.0,0.0,'2',0.50590580701828,0.50590580701828,0.0,69.0
Anger,stimuli/38M_AN_O.BMP,stimuli/39M_AN_O.BMP,stimuli/38M_AN_O.BMP,stimuli/EmptyFrame.bmp,stimuli/RedFrame.bmp,2,Anger,Male,3,1,1.0,296.1347351074219,296.1347351074219,0.0,300.126708984375,300.126708984375,0.0,299.13177490234375,299.13177490234375,0.0,1.0,1.0,0.0,'2',0.6964097023010254,0.6964097023010254,0.0,70.0
Anger,stimuli/08F_AN_O.BMP,stimuli/08F_AN_O.BMP,stimuli/13F_AN_O.BMP,stimuli/EmptyFrame.bmp,stimuli/RedFrame.bmp,1,Anger,Female,3,1,1.0,300.1548156738281,300.1548156738281,0.0,304.1429748535156,304.1429748535156,0.0,303.1598205566406,303.1598205566406,0.0,1.0,1.0,0.0,'1',0.5721989274024963,0.5721989274024963,0.0,71.0
Anger,stimuli/36M_AN_O.BMP,stimuli/37M_AN_O.BMP,stimuli/36M_AN_O.BMP,stimuli/EmptyFrame.bmp,stimuli/RedFrame.bmp,2,Anger,Male,3,1,1.0,304.1719970703125,304.1719970703125,0.0,308.1559143066406,308.1559143066406,0.0,307.16827392578125,307.16827392578125,0.0,1.0,1.0,0.0,'2',0.6224151253700256,0.6224151253700256,0.0,72.0
Anger,stimuli/09F_AN_O.BMP,stimuli/12F_AN_O.BMP,stimuli/09F_AN_O.BMP,stimuli/EmptyFrame.bmp,stimuli/RedFrame.bmp,2,Anger,Female,3,1,1.0,308.1810607910156,308.1810607910156,0.0,312.18011474609375,312.18011474609375,0.0,311.1905517578125,311.1905517578125,0.0,1.0,1.0,0.0,'2',0.5627390742301941,0.5627390742301941,0.0,73.0
Anger,stimuli/34M_AN_O.BMP,stimuli/35M_AN_O.BMP,stimuli/34M_AN_O.BMP,stimuli/EmptyFrame.bmp,stimuli/RedFrame.bmp,2,Anger,Male,3,1,1.0,312.2489929199219,312.2489929199219,0.0,316.1910400390625,316.1910400390625,0.0,315.2071533203125,315.2071533203125,0.0,1.0,1.0,0.0,'2',0.6773893237113953,0.6773893237113953,0.0,74.0
Anger,stimuli/10F_AN_O.BMP,stimuli/10F_AN_O.BMP,stimuli/11F_AN_O.BMP,stimuli/EmptyFrame.bmp,stimuli/RedFrame.bmp,1,Anger,Female,3,1,1.0,316.21527099609375,316.21527099609375,0.0,320.2093811035156,320.2093811035156,0.0,319.221435546875,319.221435546875,0.0,1.0,1.0,0.0,'1',0.5526986122131348,0.5526986122131348,0.0,75.0
Anger,stimuli/12F_AN_O.BMP,stimuli/12F_AN_O.BMP,stimuli/13F_AN_O.BMP,stimuli/EmptyFrame.bmp,stimuli/RedFrame.bmp,1,Anger,Female,3,1,1.0,320.2266540527344,320.2266540527344,0.0,324.2214050292969,324.2214050292969,0.0,323.245361328125,323.245361328125,0.0,1.0,1.0,0.0,'1',0.734252393245697,0.734252393245697,0.0,76.0
MatchFaces,stimuli/MatchFaces.bmp,stimuli/EmptyFace.bmp,stimuli/EmptyFace.bmp,stimuli/EmptyFrame.bmp,stimuli/EmptyFrame.bmp,Null,None,None,3,1,1.0,324.35009765625,324.35009765625,0.0,328.2228698730469,328.2228698730469,0.0,327.2327880859375,327.2327880859375,0.0,0.0,0.0,0.0,,,,,77.0
Happy,stimuli/20M_HA_O.BMP,stimuli/21M_HA_O.BMP,stimuli/20M_HA_O.BMP,stimuli/EmptyFrame.bmp,stimuli/RedFrame.bmp,2,Happy,Male,3,1,1.0,328.2694091796875,328.2694091796875,0.0,332.24383544921875,332.24383544921875,0.0,331.25506591796875,331.25506591796875,0.0,1.0,1.0,0.0,'2',0.7219414710998535,0.7219414710998535,0.0,78.0
Happy,stimuli/01F_HA_O.bmp,stimuli/01F_HA_O.bmp,stimuli/02F_HA_O.bmp,stimuli/EmptyFrame.bmp,stimuli/RedFrame.bmp,1,Happy,Female,3,1,1.0,332.3075256347656,332.3075256347656,0.0,336.2543640136719,336.2543640136719,0.0,335.2788391113281,335.2788391113281,0.0,1.0,1.0,0.0,'1',0.5397831201553345,0.5397831201553345,0.0,79.0
Happy,stimuli/22M_HA_O.BMP,stimuli/23M_HA_O.BMP,stimuli/22M_HA_O.BMP,stimuli/EmptyFrame.bmp,stimuli/RedFrame.bmp,2,Happy,Male,3,1,1.0,336.2867126464844,336.2867126464844,0.0,340.2768249511719,340.2768249511719,0.0,339.2922058105469,339.2922058105469,0.0,1.0,1.0,0.0,'2',0.8805177211761475,0.8805177211761475,0.0,80.0
Happy,stimuli/24M_HA_O.BMP,stimuli/24M_HA_O.BMP,stimuli/25M_HA_O.BMP,stimuli/EmptyFrame.bmp,stimuli/RedFrame.bmp,1,Happy,Male,3,1,1.0,340.3076477050781,340.3076477050781,0.0,344.29547119140625,344.29547119140625,0.0,343.312255859375,343.312255859375,0.0,1.0,1.0,0.0,'1',0.7187467813491821,0.7187467813491821,0.0,81.0
Happy,stimuli/03F_HA_O.bmp,stimuli/05F_HA_O.bmp,stimuli/03F_HA_O.bmp,stimuli/EmptyFrame.bmp,stimuli/RedFrame.bmp,2,Happy,Female,3,1,1.0,344.32293701171875,344.32293701171875,0.0,348.3146667480469,348.3146667480469,0.0,347.3267822265625,347.3267822265625,0.0,1.0,1.0,0.0,'2',0.6731938719749451,0.6731938719749451,0.0,82.0
Happy,stimuli/26M_HA_O.BMP,stimuli/26M_HA_O.BMP,stimuli/27M_HA_O.BMP,stimuli/EmptyFrame.bmp,stimuli/RedFrame.bmp,1,Happy,Male,3,1,1.0,348.3431091308594,348.3431091308594,0.0,352.3387145996094,352.3387145996094,0.0,351.3499755859375,351.3499755859375,0.0,1.0,1.0,0.0,'1',0.5854911804199219,0.5854911804199219,0.0,83.0
Happy,stimuli/06F_HA_O.bmp,stimuli/07F_HA_O.BMP,stimuli/06F_HA_O.bmp,stimuli/EmptyFrame.bmp,stimuli/RedFrame.bmp,2,Happy,Female,3,1,1.0,352.362548828125,352.362548828125,0.0,356.36444091796875,356.36444091796875,0.0,355.3690490722656,355.3690490722656,0.0,1.0,1.0,0.0,'2',0.6145846843719482,0.6145846843719482,0.0,84.0
Happy,stimuli/08F_HA_O.BMP,stimuli/08F_HA_O.BMP,stimuli/09F_HA_O.BMP,stimuli/EmptyFrame.bmp,stimuli/RedFrame.bmp,1,Happy,Female,3,1,1.0,356.3946533203125,356.3946533203125,0.0,360.3768615722656,360.3768615722656,0.0,359.39434814453125,359.39434814453125,0.0,1.0,1.0,0.0,'1',0.593249499797821,0.593249499797821,0.0,85.0
Happy,stimuli/28M_HA_O.BMP,stimuli/29M_HA_O.BMP,stimuli/28M_HA_O.BMP,stimuli/EmptyFrame.bmp,stimuli/RedFrame.bmp,2,Happy,Male,3,1,1.0,360.4060363769531,360.4060363769531,0.0,364.3990173339844,364.3990173339844,0.0,363.4152526855469,363.4152526855469,0.0,1.0,1.0,0.0,'2',0.6737421751022339,0.6737421751022339,0.0,86.0
Happy,stimuli/10F_HA_O.BMP,stimuli/10F_HA_O.BMP,stimuli/06F_HA_O.bmp,stimuli/EmptyFrame.bmp,stimuli/RedFrame.bmp,1,Happy,Female,3,1,1.0,364.42279052734375,364.42279052734375,0.0,368.41156005859375,368.41156005859375,0.0,367.4337158203125,367.4337158203125,0.0,1.0,1.0,0.0,'1',0.6155685186386108,0.6155685186386108,0.0,87.0
MatchFaces,stimuli/MatchFaces.bmp,stimuli/EmptyFace.bmp,stimuli/EmptyFace.bmp,stimuli/EmptyFrame.bmp,stimuli/EmptyFrame.bmp,Null,None,None,3,1,1.0,368.53857421875,368.53857421875,0.0,372.41650390625,372.41650390625,0.0,371.4284362792969,371.4284362792969,0.0,0.0,0.0,0.0,,,,,88.0
Neutral,stimuli/07F_NE_C.BMP,stimuli/07F_NE_C.BMP,stimuli/14F_NE_C.BMP,stimuli/EmptyFrame.bmp,stimuli/RedFrame.bmp,1,Neutral,Female,3,1,1.0,372.4620361328125,372.4620361328125,0.0,376.43450927734375,376.43450927734375,0.0,375.4491271972656,375.4491271972656,0.0,1.0,1.0,0.0,'1',0.6899203062057495,0.6899203062057495,0.0,89.0
Neutral,stimuli/25M_NE_C.BMP,stimuli/29M_NE_C.BMP,stimuli/25M_NE_C.BMP,stimuli/EmptyFrame.bmp,stimuli/RedFrame.bmp,2,Neutral,Male,3,1,1.0,376.459228515625,376.459228515625,0.0,380.44976806640625,380.44976806640625,0.0,379.46649169921875,379.46649169921875,0.0,1.0,1.0,0.0,'2',0.6808158159255981,0.6808158159255981,0.0,90.0
Neutral,stimuli/26M_NE_C.BMP,stimuli/26M_NE_C.BMP,stimuli/28M_NE_C.BMP,stimuli/EmptyFrame.bmp,stimuli/RedFrame.bmp,1,Neutral,Male,3,1,1.0,380.4710388183594,380.4710388183594,0.0,384.4688720703125,384.4688720703125,0.0,383.4819641113281,383.4819641113281,0.0,1.0,1.0,0.0,'1',0.5847200155258179,0.5847200155258179,0.0,91.0
Neutral,stimuli/08F_NE_C.BMP,stimuli/13F_NE_C.BMP,stimuli/08F_NE_C.BMP,stimuli/EmptyFrame.bmp,stimuli/RedFrame.bmp,2,Neutral,Female,3,1,1.0,384.49835205078125,384.49835205078125,0.0,388.4847717285156,388.4847717285156,0.0,387.49676513671875,387.49676513671875,0.0,1.0,1.0,0.0,'2',0.7117950916290283,0.7117950916290283,0.0,92.0
Neutral,stimuli/09F_NE_C.BMP,stimuli/09F_NE_C.BMP,stimuli/12F_NE_C.BMP,stimuli/EmptyFrame.bmp,stimuli/RedFrame.bmp,1,Neutral,Female,3,1,1.0,388.5108337402344,388.5108337402344,0.0,392.5072937011719,392.5072937011719,0.0,391.5176086425781,391.5176086425781,0.0,1.0,1.0,0.0,'1',0.5295628905296326,0.5295628905296326,0.0,93.0
Neutral,stimuli/27M_NE_C.BMP,stimuli/26M_NE_C.BMP,stimuli/27M_NE_C.BMP,stimuli/EmptyFrame.bmp,stimuli/RedFrame.bmp,2,Neutral,Male,3,1,1.0,392.5318603515625,392.5318603515625,0.0,396.516845703125,396.516845703125,0.0,395.53167724609375,395.53167724609375,0.0,1.0,1.0,0.0,'2',0.5572208762168884,0.5572208762168884,0.0,94.0
Neutral,stimuli/28M_NE_C.BMP,stimuli/28M_NE_C.BMP,stimuli/25M_NE_C.BMP,stimuli/EmptyFrame.bmp,stimuli/RedFrame.bmp,1,Neutral,Male,3,1,1.0,396.53863525390625,396.53863525390625,0.0,400.5317687988281,400.5317687988281,0.0,399.5526123046875,399.5526123046875,0.0,1.0,1.0,0.0,'1',0.6818150877952576,0.6818150877952576,0.0,95.0
Neutral,stimuli/10F_NE_C.BMP,stimuli/11F_NE_C.BMP,stimuli/10F_NE_C.BMP,stimuli/EmptyFrame.bmp,stimuli/RedFrame.bmp,2,Neutral,Female,3,1,1.0,400.55987548828125,400.55987548828125,0.0,404.54248046875,404.54248046875,0.0,403.5591735839844,403.5591735839844,0.0,1.0,1.0,0.0,'2',0.5338318943977356,0.5338318943977356,0.0,96.0
Neutral,stimuli/29M_NE_C.BMP,stimuli/29M_NE_C.BMP,stimuli/24M_NE_C.BMP,stimuli/EmptyFrame.bmp,stimuli/RedFrame.bmp,1,Neutral,Male,3,1,1.0,404.5663757324219,404.5663757324219,0.0,408.55487060546875,408.55487060546875,0.0,407.56549072265625,407.56549072265625,0.0,1.0,1.0,0.0,'1',0.5526914000511169,0.5526914000511169,0.0,97.0
Neutral,stimuli/11F_NE_C.BMP,stimuli/10F_NE_C.BMP,stimuli/11F_NE_C.BMP,stimuli/EmptyFrame.bmp,stimuli/RedFrame.bmp,2,Neutral,Female,3,1,1.0,408.5769958496094,408.5769958496094,0.0,412.5762634277344,412.5762634277344,0.0,411.582275390625,411.582275390625,0.0,1.0,1.0,0.0,'2',0.4987806975841522,0.4987806975841522,0.0,98.0
MatchFaces,stimuli/MatchFaces.bmp,stimuli/EmptyFace.bmp,stimuli/EmptyFace.bmp,stimuli/EmptyFrame.bmp,stimuli/EmptyFrame.bmp,Null,None,None,3,1,1.0,412.70330810546875,412.70330810546875,0.0,416.5877685546875,416.5877685546875,0.0,415.5938415527344,415.5938415527344,0.0,0.0,0.0,0.0,,,,,99.0
Fear,stimuli/23M_FE_O.BMP,stimuli/23M_FE_O.BMP,stimuli/24M_FE_O.BMP,stimuli/EmptyFrame.bmp,stimuli/RedFrame.bmp,1,Fear,Male,3,1,1.0,416.6640930175781,416.6640930175781,0.0,420.6088562011719,420.6088562011719,0.0,419.622802734375,419.622802734375,0.0,1.0,1.0,0.0,'1',0.7974364757537842,0.7974364757537842,0.0,100.0
Fear,stimuli/19F_FE_O.BMP,stimuli/18F_FE_O.BMP,stimuli/19F_FE_O.BMP,stimuli/EmptyFrame.bmp,stimuli/RedFrame.bmp,2,Fear,Female,3,1,1.0,420.6375732421875,420.6375732421875,0.0,424.6253967285156,424.6253967285156,0.0,423.6328430175781,423.6328430175781,0.0,1.0,1.0,0.0,'2',0.5399829149246216,0.5399829149246216,0.0,101.0
Fear,stimuli/17F_FE_O.BMP,stimuli/17F_FE_O.BMP,stimuli/16F_FE_O.BMP,stimuli/EmptyFrame.bmp,stimuli/RedFrame.bmp,1,Fear,Female,3,1,1.0,424.65460205078125,424.65460205078125,0.0,428.6371154785156,428.6371154785156,0.0,427.6595764160156,427.6595764160156,0.0,1.0,1.0,0.0,'1',0.6374803781509399,0.6374803781509399,0.0,102.0
Fear,stimuli/15F_FE_O.BMP,stimuli/18F_FE_O.BMP,stimuli/15F_FE_O.BMP,stimuli/EmptyFrame.bmp,stimuli/RedFrame.bmp,2,Fear,Female,3,1,1.0,428.6658020019531,428.6658020019531,0.0,432.6552734375,432.6552734375,0.0,431.6683349609375,431.6683349609375,0.0,1.0,1.0,0.0,'2',0.6557040810585022,0.6557040810585022,0.0,103.0
Fear,stimuli/21M_FE_O.BMP,stimuli/21M_FE_O.BMP,stimuli/22M_FE_O.BMP,stimuli/EmptyFrame.bmp,stimuli/RedFrame.bmp,1,Fear,Male,3,1,1.0,432.68701171875,432.68701171875,0.0,436.6715393066406,436.6715393066406,0.0,435.6783142089844,435.6783142089844,0.0,1.0,1.0,0.0,'1',0.7033445239067078,0.7033445239067078,0.0,104.0
Fear,stimuli/29M_FE_O.BMP,stimuli/30M_FE_O.BMP,stimuli/29M_FE_O.BMP,stimuli/EmptyFrame.bmp,stimuli/RedFrame.bmp,2,Fear,Male,3,1,1.0,436.697998046875,436.697998046875,0.0,440.6912841796875,440.6912841796875,0.0,439.7052001953125,439.7052001953125,0.0,1.0,1.0,0.0,'2',0.5868608951568604,0.5868608951568604,0.0,105.0
Fear,stimuli/31M_FE_O.BMP,stimuli/31M_FE_O.BMP,stimuli/38M_FE_O.BMP,stimuli/EmptyFrame.bmp,stimuli/RedFrame.bmp,1,Fear,Male,3,1,1.0,440.7171630859375,440.7171630859375,0.0,444.7080383300781,444.7080383300781,0.0,443.72381591796875,443.72381591796875,0.0,1.0,1.0,0.0,'1',0.5751705765724182,0.5751705765724182,0.0,106.0
Fear,stimuli/09F_FE_O.BMP,stimuli/07F_FE_O.BMP,stimuli/09F_FE_O.BMP,stimuli/EmptyFrame.bmp,stimuli/RedFrame.bmp,2,Fear,Female,3,1,1.0,444.7278747558594,444.7278747558594,0.0,448.72930908203125,448.72930908203125,0.0,447.7327575683594,447.7327575683594,0.0,1.0,1.0,0.0,'2',0.5431026816368103,0.5431026816368103,0.0,107.0
Fear,stimuli/11F_FE_O.BMP,stimuli/12F_FE_O.BMP,stimuli/11F_FE_O.BMP,stimuli/EmptyFrame.bmp,stimuli/RedFrame.bmp,2,Fear,Female,3,1,1.0,448.7510681152344,448.7510681152344,0.0,452.7437744140625,452.7437744140625,0.0,451.754638671875,451.754638671875,0.0,1.0,1.0,0.0,'2',0.7440415024757385,0.7440415024757385,0.0,108.0
Fear,stimuli/34M_FE_O.BMP,stimuli/34M_FE_O.BMP,stimuli/33M_FE_O.BMP,stimuli/EmptyFrame.bmp,stimuli/RedFrame.bmp,1,Fear,Male,3,1,1.0,452.8071594238281,452.8071594238281,0.0,456.7604064941406,456.7604064941406,0.0,455.7723693847656,455.7723693847656,0.0,1.0,1.0,0.0,'1',0.7001129984855652,0.7001129984855652,0.0,109.0

extraInfo
participant,sub010
session,002
date,2025_Jun_06_0902
expName,HaririTask_Ver1
psychopyVersion,3.0.1
frameRate,None
