TrialType,Top,Left,Right,EmptyFrame,SelectedFrame,Correct,Emotion,Gender,TrialLength,FixationLength,n,GCFaceStartTime_mean,GCFaceStartTime_raw,GCFaceStartTime_std,GCPostFaceFixationEndTime_mean,GCPostFaceFixationEndTime_raw,GCPostFaceFixationEndTime_std,GCPostFaceFixationStartTime_mean,GCPostFaceFixationStartTime_raw,GCPostFaceFixationStartTime_std,key_resp_trial.corr_mean,key_resp_trial.corr_raw,key_resp_trial.corr_std,key_resp_trial.keys_raw,key_resp_trial.rt_mean,key_resp_trial.rt_raw,key_resp_trial.rt_std,order
MatchFaces,stimuli/MatchFaces.bmp,stimuli/EmptyFace.bmp,stimuli/EmptyFace.bmp,stimuli/EmptyFrame.bmp,stimuli/EmptyFrame.bmp,Null,None,None,3,1,1.0,15.405146598815918,15.405146598815918,0.0,19.046220779418945,19.046220779418945,0.0,18.06566619873047,18.06566619873047,0.0,0.0,0.0,0.0,,,,,0.0
Fear,stimuli/23M_FE_O.BMP,stimuli/23M_FE_O.BMP,stimuli/24M_FE_O.BMP,stimuli/EmptyFrame.bmp,stimuli/RedFrame.bmp,1,Fear,Male,3,1,1.0,19.316720962524414,19.316720962524414,0.0,23.062088012695312,23.062088012695312,0.0,22.07405662536621,22.07405662536621,0.0,1.0,1.0,0.0,'1',0.8372243046760559,0.8372243046760559,0.0,1.0
Fear,stimuli/19F_FE_O.BMP,stimuli/18F_FE_O.BMP,stimuli/19F_FE_O.BMP,stimuli/EmptyFrame.bmp,stimuli/RedFrame.bmp,2,Fear,Female,3,1,1.0,23.092042922973633,23.092042922973633,0.0,27.077598571777344,27.077598571777344,0.0,26.086750030517578,26.086750030517578,0.0,1.0,1.0,0.0,'2',1.187600016593933,1.187600016593933,0.0,2.0
Fear,stimuli/17F_FE_O.BMP,stimuli/17F_FE_O.BMP,stimuli/16F_FE_O.BMP,stimuli/EmptyFrame.bmp,stimuli/RedFrame.bmp,1,Fear,Female,3,1,1.0,27.10422706604004,27.10422706604004,0.0,31.090776443481445,31.090776443481445,0.0,30.09838104248047,30.09838104248047,0.0,1.0,1.0,0.0,'1',0.8916252255439758,0.8916252255439758,0.0,3.0
Fear,stimuli/21M_FE_O.BMP,stimuli/21M_FE_O.BMP,stimuli/22M_FE_O.BMP,stimuli/EmptyFrame.bmp,stimuli/RedFrame.bmp,1,Fear,Male,3,1,1.0,31.144031524658203,31.144031524658203,0.0,35.09971237182617,35.09971237182617,0.0,34.113319396972656,34.113319396972656,0.0,1.0,1.0,0.0,'1',0.8092390894889832,0.8092390894889832,0.0,4.0
Fear,stimuli/09F_FE_O.BMP,stimuli/07F_FE_O.BMP,stimuli/09F_FE_O.BMP,stimuli/EmptyFrame.bmp,stimuli/RedFrame.bmp,2,Fear,Female,3,1,1.0,35.126705169677734,35.126705169677734,0.0,39.111942291259766,39.111942291259766,0.0,38.12898635864258,38.12898635864258,0.0,1.0,1.0,0.0,'2',1.0869872570037842,1.0869872570037842,0.0,5.0
Fear,stimuli/08F_FE_O.BMP,stimuli/13F_FE_O.BMP,stimuli/08F_FE_O.BMP,stimuli/EmptyFrame.bmp,stimuli/RedFrame.bmp,2,Fear,Female,3,1,1.0,39.14350128173828,39.14350128173828,0.0,43.1313362121582,43.1313362121582,0.0,42.144439697265625,42.144439697265625,0.0,1.0,1.0,0.0,'2',0.9860144257545471,0.9860144257545471,0.0,6.0
Fear,stimuli/07F_FE_O.BMP,stimuli/07F_FE_O.BMP,stimuli/14F_FE_O.BMP,stimuli/EmptyFrame.bmp,stimuli/RedFrame.bmp,1,Fear,Female,3,1,1.0,43.15591812133789,43.15591812133789,0.0,47.153167724609375,47.153167724609375,0.0,46.1560173034668,46.1560173034668,0.0,1.0,1.0,0.0,'1',0.7905251979827881,0.7905251979827881,0.0,7.0
Fear,stimuli/26M_FE_O.BMP,stimuli/26M_FE_O.BMP,stimuli/28M_FE_O.BMP,stimuli/EmptyFrame.bmp,stimuli/RedFrame.bmp,1,Fear,Male,3,1,1.0,47.186161041259766,47.186161041259766,0.0,51.175933837890625,51.175933837890625,0.0,50.17991256713867,50.17991256713867,0.0,1.0,1.0,0.0,'1',0.845061719417572,0.845061719417572,0.0,8.0
Fear,stimuli/10F_FE_O.BMP,stimuli/11F_FE_O.BMP,stimuli/10F_FE_O.BMP,stimuli/EmptyFrame.bmp,stimuli/RedFrame.bmp,2,Fear,Female,3,1,1.0,51.2004508972168,51.2004508972168,0.0,55.18817901611328,55.18817901611328,0.0,54.1984748840332,54.1984748840332,0.0,1.0,1.0,0.0,'2',0.8479599952697754,0.8479599952697754,0.0,9.0
Fear,stimuli/29M_FE_O.BMP,stimuli/30M_FE_O.BMP,stimuli/29M_FE_O.BMP,stimuli/EmptyFrame.bmp,stimuli/RedFrame.bmp,2,Fear,Male,3,1,1.0,55.21689224243164,55.21689224243164,0.0,59.20761489868164,59.20761489868164,0.0,58.21603775024414,58.21603775024414,0.0,1.0,1.0,0.0,'2',1.0187968015670776,1.0187968015670776,0.0,10.0
MatchFaces,stimuli/MatchFaces.bmp,stimuli/EmptyFace.bmp,stimuli/EmptyFace.bmp,stimuli/EmptyFrame.bmp,stimuli/EmptyFrame.bmp,Null,None,None,3,1,1.0,59.45682907104492,59.45682907104492,0.0,63.21073913574219,63.21073913574219,0.0,62.2161865234375,62.2161865234375,0.0,0.0,0.0,0.0,,,,,11.0
Neutral,stimuli/07F_NE_C.BMP,stimuli/07F_NE_C.BMP,stimuli/14F_NE_C.BMP,stimuli/EmptyFrame.bmp,stimuli/RedFrame.bmp,1,Neutral,Female,3,1,1.0,63.27903747558594,63.27903747558594,0.0,67.2206039428711,67.2206039428711,0.0,66.23355102539062,66.23355102539062,0.0,1.0,1.0,0.0,'1',1.0173994302749634,1.0173994302749634,0.0,12.0
Neutral,stimuli/25M_NE_C.BMP,stimuli/29M_NE_C.BMP,stimuli/25M_NE_C.BMP,stimuli/EmptyFrame.bmp,stimuli/RedFrame.bmp,2,Neutral,Male,3,1,1.0,67.24869537353516,67.24869537353516,0.0,71.23007202148438,71.23007202148438,0.0,70.25019073486328,70.25019073486328,0.0,1.0,1.0,0.0,'2',0.9869272112846375,0.9869272112846375,0.0,13.0
Neutral,stimuli/26M_NE_C.BMP,stimuli/26M_NE_C.BMP,stimuli/28M_NE_C.BMP,stimuli/EmptyFrame.bmp,stimuli/RedFrame.bmp,1,Neutral,Male,3,1,1.0,71.28974151611328,71.28974151611328,0.0,75.24713897705078,75.24713897705078,0.0,74.25636291503906,74.25636291503906,0.0,1.0,1.0,0.0,'1',0.7764186859130859,0.7764186859130859,0.0,14.0
Neutral,stimuli/08F_NE_C.BMP,stimuli/13F_NE_C.BMP,stimuli/08F_NE_C.BMP,stimuli/EmptyFrame.bmp,stimuli/RedFrame.bmp,2,Neutral,Female,3,1,1.0,75.27849578857422,75.27849578857422,0.0,79.26982879638672,79.26982879638672,0.0,78.29048156738281,78.29048156738281,0.0,1.0,1.0,0.0,'2',1.491780400276184,1.491780400276184,0.0,15.0
Neutral,stimuli/09F_NE_C.BMP,stimuli/09F_NE_C.BMP,stimuli/12F_NE_C.BMP,stimuli/EmptyFrame.bmp,stimuli/RedFrame.bmp,1,Neutral,Female,3,1,1.0,79.3034896850586,79.3034896850586,0.0,83.2912826538086,83.2912826538086,0.0,82.3048324584961,82.3048324584961,0.0,1.0,1.0,0.0,'1',0.9075270295143127,0.9075270295143127,0.0,16.0
Neutral,stimuli/27M_NE_C.BMP,stimuli/26M_NE_C.BMP,stimuli/27M_NE_C.BMP,stimuli/EmptyFrame.bmp,stimuli/RedFrame.bmp,2,Neutral,Male,3,1,1.0,83.31659698486328,83.31659698486328,0.0,87.30768585205078,87.30768585205078,0.0,86.31503295898438,86.31503295898438,0.0,1.0,1.0,0.0,'2',0.8761358857154846,0.8761358857154846,0.0,17.0
Neutral,stimuli/28M_NE_C.BMP,stimuli/28M_NE_C.BMP,stimuli/25M_NE_C.BMP,stimuli/EmptyFrame.bmp,stimuli/RedFrame.bmp,1,Neutral,Male,3,1,1.0,87.32878875732422,87.32878875732422,0.0,91.33074188232422,91.33074188232422,0.0,90.34432983398438,90.34432983398438,0.0,1.0,1.0,0.0,'1',0.8380684852600098,0.8380684852600098,0.0,18.0
Neutral,stimuli/10F_NE_C.BMP,stimuli/11F_NE_C.BMP,stimuli/10F_NE_C.BMP,stimuli/EmptyFrame.bmp,stimuli/RedFrame.bmp,2,Neutral,Female,3,1,1.0,91.3599853515625,91.3599853515625,0.0,95.34613037109375,95.34613037109375,0.0,94.35914611816406,94.35914611816406,0.0,1.0,1.0,0.0,'2',0.7546495199203491,0.7546495199203491,0.0,19.0
Neutral,stimuli/29M_NE_C.BMP,stimuli/29M_NE_C.BMP,stimuli/24M_NE_C.BMP,stimuli/EmptyFrame.bmp,stimuli/RedFrame.bmp,1,Neutral,Male,3,1,1.0,95.36908721923828,95.36908721923828,0.0,99.3534927368164,99.3534927368164,0.0,98.37031555175781,98.37031555175781,0.0,1.0,1.0,0.0,'1',0.8031848073005676,0.8031848073005676,0.0,20.0
Neutral,stimuli/11F_NE_C.BMP,stimuli/10F_NE_C.BMP,stimuli/11F_NE_C.BMP,stimuli/EmptyFrame.bmp,stimuli/RedFrame.bmp,2,Neutral,Female,3,1,1.0,99.37464141845703,99.37464141845703,0.0,103.36514282226562,103.36514282226562,0.0,102.38582611083984,102.38582611083984,0.0,1.0,1.0,0.0,'2',0.6691311001777649,0.6691311001777649,0.0,21.0
MatchShape,stimuli/MatchShapes.bmp,stimuli/EmptyFace.bmp,stimuli/EmptyFace.bmp,stimuli/EmptyFrame.bmp,stimuli/EmptyFrame.bmp,Null,None,None,3,1,1.0,103.39299774169922,103.39299774169922,0.0,107.37844848632812,107.37844848632812,0.0,106.38217163085938,106.38217163085938,0.0,0.0,0.0,0.0,,,,,22.0
Shape,stimuli/circle.bmp,stimuli/vertical.bmp,stimuli/circle.bmp,stimuli/EmptyFrame.bmp,stimuli/RedFrame.bmp,2,Shape,None,3,1,1.0,107.41577911376953,107.41577911376953,0.0,111.39703369140625,111.39703369140625,0.0,110.4045639038086,110.4045639038086,0.0,1.0,1.0,0.0,'2',0.6346375942230225,0.6346375942230225,0.0,23.0
Shape,stimuli/horizontal.bmp,stimuli/circle.bmp,stimuli/horizontal.bmp,stimuli/EmptyFrame.bmp,stimuli/RedFrame.bmp,2,Shape,None,3,1,1.0,111.4567642211914,111.4567642211914,0.0,115.40814971923828,115.40814971923828,0.0,114.42561340332031,114.42561340332031,0.0,1.0,1.0,0.0,'2',0.6477444171905518,0.6477444171905518,0.0,24.0
Shape,stimuli/circle.bmp,stimuli/vertical.bmp,stimuli/circle.bmp,stimuli/EmptyFrame.bmp,stimuli/RedFrame.bmp,2,Shape,None,3,1,1.0,115.43242645263672,115.43242645263672,0.0,119.42230987548828,119.42230987548828,0.0,118.43578338623047,118.43578338623047,0.0,1.0,1.0,0.0,'2',0.6051455736160278,0.6051455736160278,0.0,25.0
Shape,stimuli/vertical.bmp,stimuli/circle.bmp,stimuli/vertical.bmp,stimuli/EmptyFrame.bmp,stimuli/RedFrame.bmp,2,Shape,None,3,1,1.0,119.44120788574219,119.44120788574219,0.0,123.43421936035156,123.43421936035156,0.0,122.4461441040039,122.4461441040039,0.0,1.0,1.0,0.0,'2',0.7296823859214783,0.7296823859214783,0.0,26.0
Shape,stimuli/vertical.bmp,stimuli/horizontal.bmp,stimuli/vertical.bmp,stimuli/EmptyFrame.bmp,stimuli/RedFrame.bmp,2,Shape,None,3,1,1.0,123.456787109375,123.456787109375,0.0,127.44349670410156,127.44349670410156,0.0,126.4710464477539,126.4710464477539,0.0,1.0,1.0,0.0,'2',0.9723606109619141,0.9723606109619141,0.0,27.0
Shape,stimuli/horizontal.bmp,stimuli/horizontal.bmp,stimuli/vertical.bmp,stimuli/EmptyFrame.bmp,stimuli/RedFrame.bmp,1,Shape,None,3,1,1.0,127.46084594726562,127.46084594726562,0.0,131.4537811279297,131.4537811279297,0.0,130.46495056152344,130.46495056152344,0.0,1.0,1.0,0.0,'1',0.7919843196868896,0.7919843196868896,0.0,28.0
Shape,stimuli/horizontal.bmp,stimuli/circle.bmp,stimuli/horizontal.bmp,stimuli/EmptyFrame.bmp,stimuli/RedFrame.bmp,2,Shape,None,3,1,1.0,131.473388671875,131.473388671875,0.0,135.46971130371094,135.46971130371094,0.0,134.47613525390625,134.47613525390625,0.0,1.0,1.0,0.0,'2',0.6040387749671936,0.6040387749671936,0.0,29.0
Shape,stimuli/circle.bmp,stimuli/circle.bmp,stimuli/vertical.bmp,stimuli/EmptyFrame.bmp,stimuli/RedFrame.bmp,1,Shape,None,3,1,1.0,135.48928833007812,135.48928833007812,0.0,139.48614501953125,139.48614501953125,0.0,138.49656677246094,138.49656677246094,0.0,1.0,1.0,0.0,'1',0.7225162982940674,0.7225162982940674,0.0,30.0
Shape,stimuli/vertical.bmp,stimuli/horizontal.bmp,stimuli/vertical.bmp,stimuli/EmptyFrame.bmp,stimuli/RedFrame.bmp,2,Shape,None,3,1,1.0,139.5074920654297,139.5074920654297,0.0,143.50534057617188,143.50534057617188,0.0,142.51504516601562,142.51504516601562,0.0,1.0,1.0,0.0,'2',0.7403100728988647,0.7403100728988647,0.0,31.0
Shape,stimuli/vertical.bmp,stimuli/vertical.bmp,stimuli/horizontal.bmp,stimuli/EmptyFrame.bmp,stimuli/RedFrame.bmp,1,Shape,None,3,1,1.0,143.52743530273438,143.52743530273438,0.0,147.52035522460938,147.52035522460938,0.0,146.5341796875,146.5341796875,0.0,1.0,1.0,0.0,'1',0.8416869044303894,0.8416869044303894,0.0,32.0
MatchFaces,stimuli/MatchFaces.bmp,stimuli/EmptyFace.bmp,stimuli/EmptyFace.bmp,stimuli/EmptyFrame.bmp,stimuli/EmptyFrame.bmp,Null,None,None,3,1,1.0,147.71998596191406,147.71998596191406,0.0,151.52992248535156,151.52992248535156,0.0,150.53562927246094,150.53562927246094,0.0,0.0,0.0,0.0,,,,,33.0
Anger,stimuli/20M_AN_O.BMP,stimuli/34M_AN_O.BMP,stimuli/20M_AN_O.BMP,stimuli/EmptyFrame.bmp,stimuli/RedFrame.bmp,2,Anger,Male,3,1,1.0,151.59490966796875,151.59490966796875,0.0,155.53817749023438,155.53817749023438,0.0,154.55126953125,154.55126953125,0.0,1.0,1.0,0.0,'2',0.7726982831954956,0.7726982831954956,0.0,34.0
Anger,stimuli/01F_AN_O.bmp,stimuli/19F_AN_O.BMP,stimuli/01F_AN_O.bmp,stimuli/EmptyFrame.bmp,stimuli/RedFrame.bmp,2,Anger,Female,3,1,1.0,155.5673370361328,155.5673370361328,0.0,159.5515899658203,159.5515899658203,0.0,158.5642547607422,158.5642547607422,0.0,1.0,1.0,0.0,'2',0.6540085077285767,0.6540085077285767,0.0,35.0
Anger,stimuli/06F_AN_O.bmp,stimuli/15F_AN_O.BMP,stimuli/06F_AN_O.bmp,stimuli/EmptyFrame.bmp,stimuli/RedFrame.bmp,2,Anger,Female,3,1,1.0,159.5807647705078,159.5807647705078,0.0,163.57252502441406,163.57252502441406,0.0,162.5836639404297,162.5836639404297,0.0,1.0,1.0,0.0,'2',0.7637391090393066,0.7637391090393066,0.0,36.0
Anger,stimuli/42M_AN_O.BMP,stimuli/42M_AN_O.BMP,stimuli/43M_AN_O.BMP,stimuli/EmptyFrame.bmp,stimuli/RedFrame.bmp,1,Anger,Male,3,1,1.0,163.60169982910156,163.60169982910156,0.0,167.58358764648438,167.58358764648438,0.0,166.5939178466797,166.5939178466797,0.0,1.0,1.0,0.0,'1',0.6924545764923096,0.6924545764923096,0.0,37.0
Anger,stimuli/40M_AN_O.BMP,stimuli/41M_AN_O.BMP,stimuli/40M_AN_O.BMP,stimuli/EmptyFrame.bmp,stimuli/RedFrame.bmp,2,Anger,Male,3,1,1.0,167.6097869873047,167.6097869873047,0.0,171.5926513671875,171.5926513671875,0.0,170.6181182861328,170.6181182861328,0.0,1.0,1.0,0.0,'2',0.6675201058387756,0.6675201058387756,0.0,38.0
Anger,stimuli/08F_AN_O.BMP,stimuli/08F_AN_O.BMP,stimuli/13F_AN_O.BMP,stimuli/EmptyFrame.bmp,stimuli/RedFrame.bmp,1,Anger,Female,3,1,1.0,171.65203857421875,171.65203857421875,0.0,175.60577392578125,175.60577392578125,0.0,174.61878967285156,174.61878967285156,0.0,1.0,1.0,0.0,'1',0.743786096572876,0.743786096572876,0.0,39.0
Anger,stimuli/09F_AN_O.BMP,stimuli/12F_AN_O.BMP,stimuli/09F_AN_O.BMP,stimuli/EmptyFrame.bmp,stimuli/RedFrame.bmp,2,Anger,Female,3,1,1.0,175.6680450439453,175.6680450439453,0.0,179.61805725097656,179.61805725097656,0.0,178.6415252685547,178.6415252685547,0.0,1.0,1.0,0.0,'2',0.6327092051506042,0.6327092051506042,0.0,40.0
Anger,stimuli/34M_AN_O.BMP,stimuli/35M_AN_O.BMP,stimuli/34M_AN_O.BMP,stimuli/EmptyFrame.bmp,stimuli/RedFrame.bmp,2,Anger,Male,3,1,1.0,179.6437225341797,179.6437225341797,0.0,183.62965393066406,183.62965393066406,0.0,182.64161682128906,182.64161682128906,0.0,1.0,1.0,0.0,'2',0.8081089854240417,0.8081089854240417,0.0,41.0
Anger,stimuli/24M_AN_O.BMP,stimuli/24M_AN_O.BMP,stimuli/30M_AN_O.BMP,stimuli/EmptyFrame.bmp,stimuli/RedFrame.bmp,1,Anger,Male,3,1,1.0,183.65692138671875,183.65692138671875,0.0,187.64646911621094,187.64646911621094,0.0,186.65487670898438,186.65487670898438,0.0,1.0,1.0,0.0,'1',0.7032243013381958,0.7032243013381958,0.0,42.0
Anger,stimuli/03F_AN_O.bmp,stimuli/03F_AN_O.bmp,stimuli/17F_AN_O.BMP,stimuli/EmptyFrame.bmp,stimuli/RedFrame.bmp,1,Anger,Female,3,1,1.0,187.67449951171875,187.67449951171875,0.0,191.6593780517578,191.6593780517578,0.0,190.6669921875,190.6669921875,0.0,1.0,1.0,0.0,'1',0.6412690281867981,0.6412690281867981,0.0,43.0
MatchFaces,stimuli/MatchFaces.bmp,stimuli/EmptyFace.bmp,stimuli/EmptyFace.bmp,stimuli/EmptyFrame.bmp,stimuli/EmptyFrame.bmp,Null,None,None,3,1,1.0,191.91152954101562,191.91152954101562,0.0,195.665771484375,195.665771484375,0.0,194.67689514160156,194.67689514160156,0.0,0.0,0.0,0.0,,,,,44.0
Happy,stimuli/06F_HA_O.bmp,stimuli/07F_HA_O.BMP,stimuli/06F_HA_O.bmp,stimuli/EmptyFrame.bmp,stimuli/RedFrame.bmp,2,Happy,Female,3,1,1.0,195.74014282226562,195.74014282226562,0.0,199.68170166015625,199.68170166015625,0.0,198.6890869140625,198.6890869140625,0.0,1.0,1.0,0.0,'2',0.8716155290603638,0.8716155290603638,0.0,45.0
Happy,stimuli/13F_HA_O.BMP,stimuli/13F_HA_O.BMP,stimuli/12F_HA_O.BMP,stimuli/EmptyFrame.bmp,stimuli/RedFrame.bmp,1,Happy,Female,3,1,1.0,199.7109375,199.7109375,0.0,203.69180297851562,203.69180297851562,0.0,202.7056427001953,202.7056427001953,0.0,1.0,1.0,0.0,'1',0.7836288213729858,0.7836288213729858,0.0,46.0
Happy,stimuli/41M_HA_O.BMP,stimuli/41M_HA_O.BMP,stimuli/40M_HA_O.BMP,stimuli/EmptyFrame.bmp,stimuli/RedFrame.bmp,1,Happy,Male,3,1,1.0,203.7205810546875,203.7205810546875,0.0,207.7115936279297,207.7115936279297,0.0,206.7157745361328,206.7157745361328,0.0,1.0,1.0,0.0,'1',0.7033017873764038,0.7033017873764038,0.0,47.0
Happy,stimuli/03F_HA_O.bmp,stimuli/05F_HA_O.bmp,stimuli/03F_HA_O.bmp,stimuli/EmptyFrame.bmp,stimuli/RedFrame.bmp,2,Happy,Female,3,1,1.0,207.7362823486328,207.7362823486328,0.0,211.72389221191406,211.72389221191406,0.0,210.7383270263672,210.7383270263672,0.0,1.0,1.0,0.0,'2',0.6737875938415527,0.6737875938415527,0.0,48.0
Happy,stimuli/24M_HA_O.BMP,stimuli/24M_HA_O.BMP,stimuli/25M_HA_O.BMP,stimuli/EmptyFrame.bmp,stimuli/RedFrame.bmp,1,Happy,Male,3,1,1.0,211.7500762939453,211.7500762939453,0.0,215.74151611328125,215.74151611328125,0.0,214.7572479248047,214.7572479248047,0.0,1.0,1.0,0.0,'1',0.6879574060440063,0.6879574060440063,0.0,49.0
Happy,stimuli/19F_HA_O.BMP,stimuli/19F_HA_O.BMP,stimuli/18F_HA_O.BMP,stimuli/EmptyFrame.bmp,stimuli/RedFrame.bmp,1,Happy,Female,3,1,1.0,215.76766967773438,215.76766967773438,0.0,219.7592315673828,219.7592315673828,0.0,218.7684783935547,218.7684783935547,0.0,1.0,1.0,0.0,'1',1.0636639595031738,1.0636639595031738,0.0,50.0
Happy,stimuli/01F_HA_O.bmp,stimuli/01F_HA_O.bmp,stimuli/02F_HA_O.bmp,stimuli/EmptyFrame.bmp,stimuli/RedFrame.bmp,1,Happy,Female,3,1,1.0,219.78448486328125,219.78448486328125,0.0,223.7693328857422,223.7693328857422,0.0,222.78268432617188,222.78268432617188,0.0,1.0,1.0,0.0,'1',0.9095485806465149,0.9095485806465149,0.0,51.0
Happy,stimuli/22M_HA_O.BMP,stimuli/23M_HA_O.BMP,stimuli/22M_HA_O.BMP,stimuli/EmptyFrame.bmp,stimuli/RedFrame.bmp,2,Happy,Male,3,1,1.0,223.8001708984375,223.8001708984375,0.0,227.78465270996094,227.78465270996094,0.0,226.79531860351562,226.79531860351562,0.0,1.0,1.0,0.0,'2',1.0335949659347534,1.0335949659347534,0.0,52.0
Happy,stimuli/35M_HA_O.BMP,stimuli/34M_HA_O.BMP,stimuli/35M_HA_O.BMP,stimuli/EmptyFrame.bmp,stimuli/RedFrame.bmp,2,Happy,Male,3,1,1.0,227.8180389404297,227.8180389404297,0.0,231.8012237548828,231.8012237548828,0.0,230.8092041015625,230.8092041015625,0.0,1.0,1.0,0.0,'2',0.7111449241638184,0.7111449241638184,0.0,53.0
Happy,stimuli/39M_HA_O.BMP,stimuli/38M_HA_O.BMP,stimuli/39M_HA_O.BMP,stimuli/EmptyFrame.bmp,stimuli/RedFrame.bmp,2,Happy,Male,3,1,1.0,231.8301239013672,231.8301239013672,0.0,235.81935119628906,235.81935119628906,0.0,234.8228302001953,234.8228302001953,0.0,1.0,1.0,0.0,'2',0.7272794842720032,0.7272794842720032,0.0,54.0
Match Shape,stimuli/MatchShapes.bmp,stimuli/EmptyFace.bmp,stimuli/EmptyFace.bmp,stimuli/EmptyFrame.bmp,stimuli/EmptyFrame.bmp,Null,None,None,3,1,1.0,235.84246826171875,235.84246826171875,0.0,239.82972717285156,239.82972717285156,0.0,238.84457397460938,238.84457397460938,0.0,0.0,0.0,0.0,,,,,55.0
Shape,stimuli/horizontal.bmp,stimuli/horizontal.bmp,stimuli/vertical.bmp,stimuli/EmptyFrame.bmp,stimuli/RedFrame.bmp,1,Shape,None,3,1,1.0,239.860107421875,239.860107421875,0.0,243.84750366210938,243.84750366210938,0.0,242.85430908203125,242.85430908203125,0.0,1.0,1.0,0.0,'1',0.7232630848884583,0.7232630848884583,0.0,56.0
Shape,stimuli/horizontal.bmp,stimuli/horizontal.bmp,stimuli/circle.bmp,stimuli/EmptyFrame.bmp,stimuli/RedFrame.bmp,1,Shape,None,3,1,1.0,243.86932373046875,243.86932373046875,0.0,247.85935974121094,247.85935974121094,0.0,246.87808227539062,246.87808227539062,0.0,1.0,1.0,0.0,'1',0.5628768801689148,0.5628768801689148,0.0,57.0
Shape,stimuli/circle.bmp,stimuli/vertical.bmp,stimuli/circle.bmp,stimuli/EmptyFrame.bmp,stimuli/RedFrame.bmp,2,Shape,None,3,1,1.0,247.88218688964844,247.88218688964844,0.0,251.87738037109375,251.87738037109375,0.0,250.88658142089844,250.88658142089844,0.0,1.0,1.0,0.0,'2',0.6156709790229797,0.6156709790229797,0.0,58.0
Shape,stimuli/vertical.bmp,stimuli/vertical.bmp,stimuli/circle.bmp,stimuli/EmptyFrame.bmp,stimuli/RedFrame.bmp,1,Shape,None,3,1,1.0,251.89996337890625,251.89996337890625,0.0,255.8946533203125,255.8946533203125,0.0,254.8990936279297,254.8990936279297,0.0,1.0,1.0,0.0,'1',0.5959780812263489,0.5959780812263489,0.0,59.0
Shape,stimuli/horizontal.bmp,stimuli/horizontal.bmp,stimuli/circle.bmp,stimuli/EmptyFrame.bmp,stimuli/RedFrame.bmp,1,Shape,None,3,1,1.0,255.91287231445312,255.91287231445312,0.0,259.911376953125,259.911376953125,0.0,258.9188232421875,258.9188232421875,0.0,1.0,1.0,0.0,'1',0.5208796858787537,0.5208796858787537,0.0,60.0
Shape,stimuli/vertical.bmp,stimuli/vertical.bmp,stimuli/circle.bmp,stimuli/EmptyFrame.bmp,stimuli/RedFrame.bmp,1,Shape,None,3,1,1.0,259.9314880371094,259.9314880371094,0.0,263.93304443359375,263.93304443359375,0.0,262.9333190917969,262.9333190917969,0.0,1.0,1.0,0.0,'1',0.5303376913070679,0.5303376913070679,0.0,61.0
Shape,stimuli/horizontal.bmp,stimuli/circle.bmp,stimuli/horizontal.bmp,stimuli/EmptyFrame.bmp,stimuli/RedFrame.bmp,2,Shape,None,3,1,1.0,263.958984375,263.958984375,0.0,267.9535827636719,267.9535827636719,0.0,266.96527099609375,266.96527099609375,0.0,1.0,1.0,0.0,'2',0.625095784664154,0.625095784664154,0.0,62.0
Shape,stimuli/circle.bmp,stimuli/circle.bmp,stimuli/horizontal.bmp,stimuli/EmptyFrame.bmp,stimuli/RedFrame.bmp,1,Shape,None,3,1,1.0,267.97528076171875,267.97528076171875,0.0,271.9670715332031,271.9670715332031,0.0,270.9772644042969,270.9772644042969,0.0,1.0,1.0,0.0,'1',0.7882311940193176,0.7882311940193176,0.0,63.0
Shape,stimuli/circle.bmp,stimuli/horizontal.bmp,stimuli/circle.bmp,stimuli/EmptyFrame.bmp,stimuli/RedFrame.bmp,2,Shape,None,3,1,1.0,271.988525390625,271.988525390625,0.0,275.9814453125,275.9814453125,0.0,274.9977722167969,274.9977722167969,0.0,1.0,1.0,0.0,'2',0.756403923034668,0.756403923034668,0.0,64.0
Shape,stimuli/vertical.bmp,stimuli/vertical.bmp,stimuli/horizontal.bmp,stimuli/EmptyFrame.bmp,stimuli/RedFrame.bmp,1,Shape,None,3,1,1.0,276.0059814453125,276.0059814453125,0.0,279.9993896484375,279.9993896484375,0.0,279.0150146484375,279.0150146484375,0.0,1.0,1.0,0.0,'1',0.5562723875045776,0.5562723875045776,0.0,65.0
MatchFaces,stimuli/MatchFaces.bmp,stimuli/EmptyFace.bmp,stimuli/EmptyFace.bmp,stimuli/EmptyFrame.bmp,stimuli/EmptyFrame.bmp,Null,None,None,3,1,1.0,280.2605285644531,280.2605285644531,0.0,284.003173828125,284.003173828125,0.0,283.0155029296875,283.0155029296875,0.0,0.0,0.0,0.0,,,,,66.0
Neutral,stimuli/20M_NE_C.BMP,stimuli/21M_NE_C.BMP,stimuli/20M_NE_C.BMP,stimuli/EmptyFrame.bmp,stimuli/RedFrame.bmp,2,Neutral,Male,3,1,1.0,284.1120300292969,284.1120300292969,0.0,288.0226135253906,288.0226135253906,0.0,287.0302429199219,287.0302429199219,0.0,1.0,1.0,0.0,'2',0.9038156867027283,0.9038156867027283,0.0,67.0
Neutral,stimuli/01F_NE_C.bmp,stimuli/01F_NE_C.bmp,stimuli/02F_NE_C.bmp,stimuli/EmptyFrame.bmp,stimuli/RedFrame.bmp,1,Neutral,Female,3,1,1.0,288.055908203125,288.055908203125,0.0,292.0312194824219,292.0312194824219,0.0,291.05224609375,291.05224609375,0.0,1.0,1.0,0.0,'1',0.6772251129150391,0.6772251129150391,0.0,68.0
Neutral,stimuli/22M_NE_C.BMP,stimuli/23M_NE_C.BMP,stimuli/22M_NE_C.BMP,stimuli/EmptyFrame.bmp,stimuli/RedFrame.bmp,2,Neutral,Male,3,1,1.0,292.0980224609375,292.0980224609375,0.0,296.0528259277344,296.0528259277344,0.0,295.061279296875,295.061279296875,0.0,1.0,1.0,0.0,'2',0.7811905741691589,0.7811905741691589,0.0,69.0
Neutral,stimuli/24M_NE_C.BMP,stimuli/24M_NE_C.BMP,stimuli/25M_NE_C.BMP,stimuli/EmptyFrame.bmp,stimuli/RedFrame.bmp,1,Neutral,Male,3,1,1.0,296.0758972167969,296.0758972167969,0.0,300.06707763671875,300.06707763671875,0.0,299.085205078125,299.085205078125,0.0,1.0,1.0,0.0,'1',0.8224644064903259,0.8224644064903259,0.0,70.0
Neutral,stimuli/03F_NE_C.bmp,stimuli/05F_NE_C.bmp,stimuli/03F_NE_C.bmp,stimuli/EmptyFrame.bmp,stimuli/RedFrame.bmp,2,Neutral,Female,3,1,1.0,300.0970153808594,300.0970153808594,0.0,304.081787109375,304.081787109375,0.0,303.0990295410156,303.0990295410156,0.0,1.0,1.0,0.0,'2',0.8882412910461426,0.8882412910461426,0.0,71.0
Neutral,stimuli/26M_NE_C.BMP,stimuli/26M_NE_C.BMP,stimuli/27M_NE_C.BMP,stimuli/EmptyFrame.bmp,stimuli/RedFrame.bmp,1,Neutral,Male,3,1,1.0,304.1047668457031,304.1047668457031,0.0,308.0989074707031,308.0989074707031,0.0,307.1182861328125,307.1182861328125,0.0,1.0,1.0,0.0,'1',0.801651120185852,0.801651120185852,0.0,72.0
Neutral,stimuli/06F_NE_C.bmp,stimuli/07F_NE_C.BMP,stimuli/06F_NE_C.bmp,stimuli/EmptyFrame.bmp,stimuli/RedFrame.bmp,2,Neutral,Female,3,1,1.0,308.15625,308.15625,0.0,312.1183166503906,312.1183166503906,0.0,311.1372985839844,311.1372985839844,0.0,1.0,1.0,0.0,'2',1.129633903503418,1.129633903503418,0.0,73.0
Neutral,stimuli/08F_NE_C.BMP,stimuli/08F_NE_C.BMP,stimuli/09F_NE_C.BMP,stimuli/EmptyFrame.bmp,stimuli/RedFrame.bmp,1,Neutral,Female,3,1,1.0,312.1412048339844,312.1412048339844,0.0,316.1343078613281,316.1343078613281,0.0,315.1500244140625,315.1500244140625,0.0,1.0,1.0,0.0,'1',0.8416445851325989,0.8416445851325989,0.0,74.0
Neutral,stimuli/28M_NE_C.BMP,stimuli/29M_NE_C.BMP,stimuli/28M_NE_C.BMP,stimuli/EmptyFrame.bmp,stimuli/RedFrame.bmp,2,Neutral,Male,3,1,1.0,316.16162109375,316.16162109375,0.0,320.15545654296875,320.15545654296875,0.0,319.1740417480469,319.1740417480469,0.0,1.0,1.0,0.0,'2',0.7733049988746643,0.7733049988746643,0.0,75.0
Neutral,stimuli/10F_NE_C.BMP,stimuli/10F_NE_C.BMP,stimuli/06F_NE_C.bmp,stimuli/EmptyFrame.bmp,stimuli/RedFrame.bmp,1,Neutral,Female,3,1,1.0,320.179443359375,320.179443359375,0.0,324.16748046875,324.16748046875,0.0,323.1872253417969,323.1872253417969,0.0,1.0,1.0,0.0,'1',0.6656008958816528,0.6656008958816528,0.0,76.0
MatchFaces,stimuli/MatchFaces.bmp,stimuli/EmptyFace.bmp,stimuli/EmptyFace.bmp,stimuli/EmptyFrame.bmp,stimuli/EmptyFrame.bmp,Null,None,None,3,1,1.0,324.6116943359375,324.6116943359375,0.0,328.1686706542969,328.1686706542969,0.0,327.1932067871094,327.1932067871094,0.0,0.0,0.0,0.0,,,,,77.0
Happy,stimuli/28M_HA_O.BMP,stimuli/29M_HA_O.BMP,stimuli/28M_HA_O.BMP,stimuli/EmptyFrame.bmp,stimuli/RedFrame.bmp,2,Happy,Male,3,1,1.0,328.2548522949219,328.2548522949219,0.0,332.18011474609375,332.18011474609375,0.0,331.1920166015625,331.1920166015625,0.0,1.0,1.0,0.0,'2',0.9275801777839661,0.9275801777839661,0.0,78.0
Happy,stimuli/10F_HA_O.BMP,stimuli/10F_HA_O.BMP,stimuli/06F_HA_O.bmp,stimuli/EmptyFrame.bmp,stimuli/RedFrame.bmp,1,Happy,Female,3,1,1.0,332.2474060058594,332.2474060058594,0.0,336.1961364746094,336.1961364746094,0.0,335.20745849609375,335.20745849609375,0.0,1.0,1.0,0.0,'1',0.5222586989402771,0.5222586989402771,0.0,79.0
Happy,stimuli/26M_HA_O.BMP,stimuli/26M_HA_O.BMP,stimuli/27M_HA_O.BMP,stimuli/EmptyFrame.bmp,stimuli/RedFrame.bmp,1,Happy,Male,3,1,1.0,336.2216796875,336.2216796875,0.0,340.2095642089844,340.2095642089844,0.0,339.2198486328125,339.2198486328125,0.0,1.0,1.0,0.0,'1',0.7410042881965637,0.7410042881965637,0.0,80.0
Happy,stimuli/20M_HA_O.BMP,stimuli/21M_HA_O.BMP,stimuli/20M_HA_O.BMP,stimuli/EmptyFrame.bmp,stimuli/RedFrame.bmp,2,Happy,Male,3,1,1.0,340.2387390136719,340.2387390136719,0.0,344.233154296875,344.233154296875,0.0,343.23077392578125,343.23077392578125,0.0,1.0,1.0,0.0,'2',1.577584981918335,1.577584981918335,0.0,81.0
Happy,stimuli/37M_HA_O.BMP,stimuli/37M_HA_O.BMP,stimuli/36M_HA_O.BMP,stimuli/EmptyFrame.bmp,stimuli/RedFrame.bmp,1,Happy,Male,3,1,1.0,344.2638854980469,344.2638854980469,0.0,348.2502136230469,348.2502136230469,0.0,347.2542724609375,347.2542724609375,0.0,1.0,1.0,0.0,'1',0.7841367721557617,0.7841367721557617,0.0,82.0
Happy,stimuli/43M_HA_O.BMP,stimuli/42M_HA_O.BMP,stimuli/43M_HA_O.BMP,stimuli/EmptyFrame.bmp,stimuli/RedFrame.bmp,2,Happy,Male,3,1,1.0,348.2774353027344,348.2774353027344,0.0,352.2637023925781,352.2637023925781,0.0,351.28204345703125,351.28204345703125,0.0,1.0,1.0,0.0,'2',0.6478937268257141,0.6478937268257141,0.0,83.0
Happy,stimuli/11F_HA_O.BMP,stimuli/10F_HA_O.BMP,stimuli/11F_HA_O.BMP,stimuli/EmptyFrame.bmp,stimuli/RedFrame.bmp,2,Happy,Female,3,1,1.0,352.2911376953125,352.2911376953125,0.0,356.28076171875,356.28076171875,0.0,355.2943420410156,355.2943420410156,0.0,1.0,1.0,0.0,'2',0.6406400799751282,0.6406400799751282,0.0,84.0
Happy,stimuli/17F_HA_O.BMP,stimuli/16F_HA_O.BMP,stimuli/17F_HA_O.BMP,stimuli/EmptyFrame.bmp,stimuli/RedFrame.bmp,2,Happy,Female,3,1,1.0,356.3063659667969,356.3063659667969,0.0,360.2944030761719,360.2944030761719,0.0,359.301025390625,359.301025390625,0.0,1.0,1.0,0.0,'2',0.9770901203155518,0.9770901203155518,0.0,85.0
Happy,stimuli/15F_HA_O.BMP,stimuli/15F_HA_O.BMP,stimuli/14F_HA_O.BMP,stimuli/EmptyFrame.bmp,stimuli/RedFrame.bmp,1,Happy,Female,3,1,1.0,360.3250427246094,360.3250427246094,0.0,364.3092956542969,364.3092956542969,0.0,363.32196044921875,363.32196044921875,0.0,1.0,1.0,0.0,'1',0.8783009052276611,0.8783009052276611,0.0,86.0
Happy,stimuli/08F_HA_O.BMP,stimuli/08F_HA_O.BMP,stimuli/09F_HA_O.BMP,stimuli/EmptyFrame.bmp,stimuli/RedFrame.bmp,1,Happy,Female,3,1,1.0,364.33807373046875,364.33807373046875,0.0,368.32489013671875,368.32489013671875,0.0,367.34039306640625,367.34039306640625,0.0,1.0,1.0,0.0,'1',0.7672073841094971,0.7672073841094971,0.0,87.0
MatchFaces,stimuli/MatchFaces.bmp,stimuli/EmptyFace.bmp,stimuli/EmptyFace.bmp,stimuli/EmptyFrame.bmp,stimuli/EmptyFrame.bmp,Null,None,None,3,1,1.0,368.5817565917969,368.5817565917969,0.0,372.3297119140625,372.3297119140625,0.0,371.3342590332031,371.3342590332031,0.0,0.0,0.0,0.0,,,,,88.0
Fear,stimuli/34M_FE_O.BMP,stimuli/34M_FE_O.BMP,stimuli/33M_FE_O.BMP,stimuli/EmptyFrame.bmp,stimuli/RedFrame.bmp,1,Fear,Male,3,1,1.0,372.3984680175781,372.3984680175781,0.0,376.3375549316406,376.3375549316406,0.0,375.36346435546875,375.36346435546875,0.0,1.0,1.0,0.0,'1',0.876471221446991,0.876471221446991,0.0,89.0
Fear,stimuli/28M_FE_O.BMP,stimuli/28M_FE_O.BMP,stimuli/25M_FE_O.BMP,stimuli/EmptyFrame.bmp,stimuli/RedFrame.bmp,1,Fear,Male,3,1,1.0,376.36212158203125,376.36212158203125,0.0,380.3463134765625,380.3463134765625,0.0,379.4019470214844,379.4019470214844,0.0,1.0,1.0,0.0,'1',0.9898477792739868,0.9898477792739868,0.0,90.0
Fear,stimuli/11F_FE_O.BMP,stimuli/10F_FE_O.BMP,stimuli/11F_FE_O.BMP,stimuli/EmptyFrame.bmp,stimuli/RedFrame.bmp,2,Fear,Female,3,1,1.0,380.3716125488281,380.3716125488281,0.0,384.35955810546875,384.35955810546875,0.0,383.37451171875,383.37451171875,0.0,1.0,1.0,0.0,'2',0.7061713933944702,0.7061713933944702,0.0,91.0
Fear,stimuli/27M_FE_O.BMP,stimuli/26M_FE_O.BMP,stimuli/27M_FE_O.BMP,stimuli/EmptyFrame.bmp,stimuli/RedFrame.bmp,2,Fear,Male,3,1,1.0,384.384765625,384.384765625,0.0,388.3825988769531,388.3825988769531,0.0,387.4021911621094,387.4021911621094,0.0,1.0,1.0,0.0,'2',0.7803344130516052,0.7803344130516052,0.0,92.0
Fear,stimuli/11F_FE_O.BMP,stimuli/12F_FE_O.BMP,stimuli/11F_FE_O.BMP,stimuli/EmptyFrame.bmp,stimuli/RedFrame.bmp,2,Fear,Female,3,1,1.0,388.4140930175781,388.4140930175781,0.0,392.3956298828125,392.3956298828125,0.0,391.411376953125,391.411376953125,0.0,1.0,1.0,0.0,'2',0.9868590831756592,0.9868590831756592,0.0,93.0
Fear,stimuli/31M_FE_O.BMP,stimuli/31M_FE_O.BMP,stimuli/38M_FE_O.BMP,stimuli/EmptyFrame.bmp,stimuli/RedFrame.bmp,1,Fear,Male,3,1,1.0,392.4645080566406,392.4645080566406,0.0,396.41070556640625,396.41070556640625,0.0,395.4234924316406,395.4234924316406,0.0,1.0,1.0,0.0,'1',0.767393171787262,0.767393171787262,0.0,94.0
Fear,stimuli/29M_FE_O.BMP,stimuli/29M_FE_O.BMP,stimuli/24M_FE_O.BMP,stimuli/EmptyFrame.bmp,stimuli/RedFrame.bmp,1,Fear,Male,3,1,1.0,396.4316711425781,396.4316711425781,0.0,400.4250793457031,400.4250793457031,0.0,399.43804931640625,399.43804931640625,0.0,1.0,1.0,0.0,'1',0.9745447039604187,0.9745447039604187,0.0,95.0
Fear,stimuli/25M_FE_O.BMP,stimuli/29M_FE_O.BMP,stimuli/25M_FE_O.BMP,stimuli/EmptyFrame.bmp,stimuli/RedFrame.bmp,2,Fear,Male,3,1,1.0,400.44989013671875,400.44989013671875,0.0,404.4391784667969,404.4391784667969,0.0,403.4515380859375,403.4515380859375,0.0,1.0,1.0,0.0,'2',0.8567970991134644,0.8567970991134644,0.0,96.0
Fear,stimuli/15F_FE_O.BMP,stimuli/18F_FE_O.BMP,stimuli/15F_FE_O.BMP,stimuli/EmptyFrame.bmp,stimuli/RedFrame.bmp,2,Fear,Female,3,1,1.0,404.4658203125,404.4658203125,0.0,408.4574890136719,408.4574890136719,0.0,407.46270751953125,407.46270751953125,0.0,1.0,1.0,0.0,'2',1.0789895057678223,1.0789895057678223,0.0,97.0
Fear,stimuli/09F_FE_O.BMP,stimuli/09F_FE_O.BMP,stimuli/12F_FE_O.BMP,stimuli/EmptyFrame.bmp,stimuli/RedFrame.bmp,1,Fear,Female,3,1,1.0,408.47601318359375,408.47601318359375,0.0,412.4708251953125,412.4708251953125,0.0,411.48712158203125,411.48712158203125,0.0,1.0,1.0,0.0,'1',0.6747499704360962,0.6747499704360962,0.0,98.0
MatchFaces,stimuli/MatchFaces.bmp,stimuli/EmptyFace.bmp,stimuli/EmptyFace.bmp,stimuli/EmptyFrame.bmp,stimuli/EmptyFrame.bmp,Null,None,None,3,1,1.0,412.712158203125,412.712158203125,0.0,416.47686767578125,416.47686767578125,0.0,415.48272705078125,415.48272705078125,0.0,0.0,0.0,0.0,,,,,99.0
Anger,stimuli/23M_AN_O.BMP,stimuli/23M_AN_O.BMP,stimuli/31M_AN_O.BMP,stimuli/EmptyFrame.bmp,stimuli/RedFrame.bmp,1,Anger,Male,3,1,1.0,416.5493469238281,416.5493469238281,0.0,420.4987487792969,420.4987487792969,0.0,419.4983215332031,419.4983215332031,0.0,1.0,1.0,0.0,'1',0.6520652770996094,0.6520652770996094,0.0,100.0
Anger,stimuli/36M_AN_O.BMP,stimuli/37M_AN_O.BMP,stimuli/36M_AN_O.BMP,stimuli/EmptyFrame.bmp,stimuli/RedFrame.bmp,2,Anger,Male,3,1,1.0,420.52734375,420.52734375,0.0,424.509765625,424.509765625,0.0,423.5359191894531,423.5359191894531,0.0,1.0,1.0,0.0,'2',0.6710032820701599,0.6710032820701599,0.0,101.0
Anger,stimuli/38M_AN_O.BMP,stimuli/39M_AN_O.BMP,stimuli/38M_AN_O.BMP,stimuli/EmptyFrame.bmp,stimuli/RedFrame.bmp,2,Anger,Male,3,1,1.0,424.53857421875,424.53857421875,0.0,428.5283203125,428.5283203125,0.0,427.53961181640625,427.53961181640625,0.0,1.0,1.0,0.0,'2',0.6093037724494934,0.6093037724494934,0.0,102.0
Anger,stimuli/02f_an_o.bmp,stimuli/18F_AN_O.BMP,stimuli/02f_an_o.bmp,stimuli/EmptyFrame.bmp,stimuli/RedFrame.bmp,2,Anger,Female,3,1,1.0,428.5566711425781,428.5566711425781,0.0,432.5419616699219,432.5419616699219,0.0,431.55731201171875,431.55731201171875,0.0,1.0,1.0,0.0,'2',0.5201132893562317,0.5201132893562317,0.0,103.0
Anger,stimuli/22M_AN_O.BMP,stimuli/32M_AN_O.BMP,stimuli/22M_AN_O.BMP,stimuli/EmptyFrame.bmp,stimuli/RedFrame.bmp,2,Anger,Male,3,1,1.0,432.56890869140625,432.56890869140625,0.0,436.5570373535156,436.5570373535156,0.0,435.5630798339844,435.5630798339844,0.0,1.0,1.0,0.0,'2',0.7779068946838379,0.7779068946838379,0.0,104.0
Anger,stimuli/12F_AN_O.BMP,stimuli/12F_AN_O.BMP,stimuli/13F_AN_O.BMP,stimuli/EmptyFrame.bmp,stimuli/RedFrame.bmp,1,Anger,Female,3,1,1.0,436.57794189453125,436.57794189453125,0.0,440.57611083984375,440.57611083984375,0.0,439.5894775390625,439.5894775390625,0.0,1.0,1.0,0.0,'1',1.1874566078186035,1.1874566078186035,0.0,105.0
Anger,stimuli/05F_AN_O.bmp,stimuli/05F_AN_O.bmp,stimuli/16F_AN_O.BMP,stimuli/EmptyFrame.bmp,stimuli/RedFrame.bmp,1,Anger,Female,3,1,1.0,440.6439208984375,440.6439208984375,0.0,444.5954284667969,444.5954284667969,0.0,443.5964050292969,443.5964050292969,0.0,1.0,1.0,0.0,'1',0.7775998711585999,0.7775998711585999,0.0,106.0
Anger,stimuli/21M_AN_O.BMP,stimuli/21M_AN_O.BMP,stimuli/33M_AN_O.BMP,stimuli/EmptyFrame.bmp,stimuli/RedFrame.bmp,1,Anger,Male,3,1,1.0,444.6286315917969,444.6286315917969,0.0,448.60687255859375,448.60687255859375,0.0,447.6202697753906,447.6202697753906,0.0,1.0,1.0,0.0,'1',0.7671383023262024,0.7671383023262024,0.0,107.0
Anger,stimuli/07F_AN_O.BMP,stimuli/07F_AN_O.BMP,stimuli/14F_AN_O.BMP,stimuli/EmptyFrame.bmp,stimuli/RedFrame.bmp,1,Anger,Female,3,1,1.0,448.63616943359375,448.63616943359375,0.0,452.6155090332031,452.6155090332031,0.0,451.6352233886719,451.6352233886719,0.0,1.0,1.0,0.0,'1',0.846919596195221,0.846919596195221,0.0,108.0
Anger,stimuli/10F_AN_O.BMP,stimuli/10F_AN_O.BMP,stimuli/11F_AN_O.BMP,stimuli/EmptyFrame.bmp,stimuli/RedFrame.bmp,1,Anger,Female,3,1,1.0,452.64508056640625,452.64508056640625,0.0,456.62982177734375,456.62982177734375,0.0,455.6461486816406,455.6461486816406,0.0,1.0,1.0,0.0,'1',1.0335255861282349,1.0335255861282349,0.0,109.0

extraInfo
participant,sub015
session,002
date,2025_Jun_25_0908
expName,HaririTask_Ver2
psychopyVersion,3.0.1
frameRate,None
