TrialType,Top,Left,Right,EmptyFrame,SelectedFrame,Correct,Emotion,Gender,TrialLength,FixationLength,n,GCFaceStartTime_mean,GCFaceStartTime_raw,GCFaceStartTime_std,GCPostFaceFixationEndTime_mean,GCPostFaceFixationEndTime_raw,GCPostFaceFixationEndTime_std,GCPostFaceFixationStartTime_mean,GCPostFaceFixationStartTime_raw,GCPostFaceFixationStartTime_std,key_resp_trial.corr_mean,key_resp_trial.corr_raw,key_resp_trial.corr_std,key_resp_trial.keys_raw,key_resp_trial.rt_mean,key_resp_trial.rt_raw,key_resp_trial.rt_std,order
MatchFaces,stimuli/MatchFaces.bmp,stimuli/EmptyFace.bmp,stimuli/EmptyFace.bmp,stimuli/EmptyFrame.bmp,stimuli/EmptyFrame.bmp,Null,None,None,3,1,1.0,15.21594524383545,15.21594524383545,0.0,19.04132843017578,19.04132843017578,0.0,18.04591178894043,18.04591178894043,0.0,0.0,0.0,0.0,,,,,0.0
Fear,stimuli/23M_FE_O.BMP,stimuli/23M_FE_O.BMP,stimuli/24M_FE_O.BMP,stimuli/EmptyFrame.bmp,stimuli/RedFrame.bmp,1,Fear,Male,3,1,1.0,19.225053787231445,19.225053787231445,0.0,23.063138961791992,23.063138961791992,0.0,22.067201614379883,22.067201614379883,0.0,1.0,1.0,0.0,'1',0.8640187978744507,0.8640187978744507,0.0,1.0
Fear,stimuli/19F_FE_O.BMP,stimuli/18F_FE_O.BMP,stimuli/19F_FE_O.BMP,stimuli/EmptyFrame.bmp,stimuli/RedFrame.bmp,2,Fear,Female,3,1,1.0,23.089427947998047,23.089427947998047,0.0,27.088363647460938,27.088363647460938,0.0,26.10297966003418,26.10297966003418,0.0,1.0,1.0,0.0,'2',0.9865097999572754,0.9865097999572754,0.0,2.0
Fear,stimuli/17F_FE_O.BMP,stimuli/17F_FE_O.BMP,stimuli/16F_FE_O.BMP,stimuli/EmptyFrame.bmp,stimuli/RedFrame.bmp,1,Fear,Female,3,1,1.0,27.108823776245117,27.108823776245117,0.0,31.10873794555664,31.10873794555664,0.0,30.12529182434082,30.12529182434082,0.0,1.0,1.0,0.0,'1',0.8520060777664185,0.8520060777664185,0.0,3.0
Fear,stimuli/21M_FE_O.BMP,stimuli/21M_FE_O.BMP,stimuli/22M_FE_O.BMP,stimuli/EmptyFrame.bmp,stimuli/RedFrame.bmp,1,Fear,Male,3,1,1.0,31.136688232421875,31.136688232421875,0.0,35.124977111816406,35.124977111816406,0.0,34.13944625854492,34.13944625854492,0.0,1.0,1.0,0.0,'1',0.7894986867904663,0.7894986867904663,0.0,4.0
Fear,stimuli/09F_FE_O.BMP,stimuli/07F_FE_O.BMP,stimuli/09F_FE_O.BMP,stimuli/EmptyFrame.bmp,stimuli/RedFrame.bmp,2,Fear,Female,3,1,1.0,35.15243148803711,35.15243148803711,0.0,39.14271926879883,39.14271926879883,0.0,38.182308197021484,38.182308197021484,0.0,1.0,1.0,0.0,'2',1.0224534273147583,1.0224534273147583,0.0,5.0
Fear,stimuli/08F_FE_O.BMP,stimuli/13F_FE_O.BMP,stimuli/08F_FE_O.BMP,stimuli/EmptyFrame.bmp,stimuli/RedFrame.bmp,2,Fear,Female,3,1,1.0,39.173641204833984,39.173641204833984,0.0,43.165504455566406,43.165504455566406,0.0,42.18496322631836,42.18496322631836,0.0,1.0,1.0,0.0,'2',1.002516269683838,1.002516269683838,0.0,6.0
Fear,stimuli/07F_FE_O.BMP,stimuli/07F_FE_O.BMP,stimuli/14F_FE_O.BMP,stimuli/EmptyFrame.bmp,stimuli/RedFrame.bmp,1,Fear,Female,3,1,1.0,43.19334030151367,43.19334030151367,0.0,47.18830108642578,47.18830108642578,0.0,46.196441650390625,46.196441650390625,0.0,1.0,1.0,0.0,'1',0.7647380828857422,0.7647380828857422,0.0,7.0
Fear,stimuli/26M_FE_O.BMP,stimuli/26M_FE_O.BMP,stimuli/28M_FE_O.BMP,stimuli/EmptyFrame.bmp,stimuli/RedFrame.bmp,1,Fear,Male,3,1,1.0,47.2150993347168,47.2150993347168,0.0,51.20475769042969,51.20475769042969,0.0,50.223445892333984,50.223445892333984,0.0,1.0,1.0,0.0,'1',0.8554872870445251,0.8554872870445251,0.0,8.0
Fear,stimuli/10F_FE_O.BMP,stimuli/11F_FE_O.BMP,stimuli/10F_FE_O.BMP,stimuli/EmptyFrame.bmp,stimuli/RedFrame.bmp,2,Fear,Female,3,1,1.0,51.22727584838867,51.22727584838867,0.0,55.217105865478516,55.217105865478516,0.0,54.242759704589844,54.242759704589844,0.0,1.0,1.0,0.0,'2',0.7170823216438293,0.7170823216438293,0.0,9.0
Fear,stimuli/29M_FE_O.BMP,stimuli/30M_FE_O.BMP,stimuli/29M_FE_O.BMP,stimuli/EmptyFrame.bmp,stimuli/RedFrame.bmp,2,Fear,Male,3,1,1.0,55.240142822265625,55.240142822265625,0.0,59.2306022644043,59.2306022644043,0.0,58.25115966796875,58.25115966796875,0.0,1.0,1.0,0.0,'2',0.7818573713302612,0.7818573713302612,0.0,10.0
MatchFaces,stimuli/MatchFaces.bmp,stimuli/EmptyFace.bmp,stimuli/EmptyFace.bmp,stimuli/EmptyFrame.bmp,stimuli/EmptyFrame.bmp,Null,None,None,3,1,1.0,59.45474624633789,59.45474624633789,0.0,63.23660659790039,63.23660659790039,0.0,62.256473541259766,62.256473541259766,0.0,0.0,0.0,0.0,,,,,11.0
Neutral,stimuli/07F_NE_C.BMP,stimuli/07F_NE_C.BMP,stimuli/14F_NE_C.BMP,stimuli/EmptyFrame.bmp,stimuli/RedFrame.bmp,1,Neutral,Female,3,1,1.0,63.35066223144531,63.35066223144531,0.0,67.25257110595703,67.25257110595703,0.0,66.27129364013672,66.27129364013672,0.0,1.0,1.0,0.0,'1',0.7758859992027283,0.7758859992027283,0.0,12.0
Neutral,stimuli/25M_NE_C.BMP,stimuli/29M_NE_C.BMP,stimuli/25M_NE_C.BMP,stimuli/EmptyFrame.bmp,stimuli/RedFrame.bmp,2,Neutral,Male,3,1,1.0,67.281494140625,67.281494140625,0.0,71.26859283447266,71.26859283447266,0.0,70.28092193603516,70.28092193603516,0.0,1.0,1.0,0.0,'2',0.7951382994651794,0.7951382994651794,0.0,13.0
Neutral,stimuli/26M_NE_C.BMP,stimuli/26M_NE_C.BMP,stimuli/28M_NE_C.BMP,stimuli/EmptyFrame.bmp,stimuli/RedFrame.bmp,1,Neutral,Male,3,1,1.0,71.29118347167969,71.29118347167969,0.0,75.28500366210938,75.28500366210938,0.0,74.30145263671875,74.30145263671875,0.0,1.0,1.0,0.0,'1',0.669870913028717,0.669870913028717,0.0,14.0
Neutral,stimuli/08F_NE_C.BMP,stimuli/13F_NE_C.BMP,stimuli/08F_NE_C.BMP,stimuli/EmptyFrame.bmp,stimuli/RedFrame.bmp,2,Neutral,Female,3,1,1.0,75.30470275878906,75.30470275878906,0.0,79.30430603027344,79.30430603027344,0.0,78.31610107421875,78.31610107421875,0.0,1.0,1.0,0.0,'2',0.7205837965011597,0.7205837965011597,0.0,15.0
Neutral,stimuli/09F_NE_C.BMP,stimuli/09F_NE_C.BMP,stimuli/12F_NE_C.BMP,stimuli/EmptyFrame.bmp,stimuli/RedFrame.bmp,1,Neutral,Female,3,1,1.0,79.33527374267578,79.33527374267578,0.0,83.32450866699219,83.32450866699219,0.0,82.34195709228516,82.34195709228516,0.0,1.0,1.0,0.0,'1',0.7089223265647888,0.7089223265647888,0.0,16.0
Neutral,stimuli/27M_NE_C.BMP,stimuli/26M_NE_C.BMP,stimuli/27M_NE_C.BMP,stimuli/EmptyFrame.bmp,stimuli/RedFrame.bmp,2,Neutral,Male,3,1,1.0,83.34867095947266,83.34867095947266,0.0,87.35069274902344,87.35069274902344,0.0,86.34954071044922,86.34954071044922,0.0,1.0,1.0,0.0,'2',0.6717305779457092,0.6717305779457092,0.0,17.0
Neutral,stimuli/28M_NE_C.BMP,stimuli/28M_NE_C.BMP,stimuli/25M_NE_C.BMP,stimuli/EmptyFrame.bmp,stimuli/RedFrame.bmp,1,Neutral,Male,3,1,1.0,87.37139892578125,87.37139892578125,0.0,91.3708267211914,91.3708267211914,0.0,90.37541198730469,90.37541198730469,0.0,1.0,1.0,0.0,'1',0.7220174074172974,0.7220174074172974,0.0,18.0
Neutral,stimuli/10F_NE_C.BMP,stimuli/11F_NE_C.BMP,stimuli/10F_NE_C.BMP,stimuli/EmptyFrame.bmp,stimuli/RedFrame.bmp,2,Neutral,Female,3,1,1.0,91.40321350097656,91.40321350097656,0.0,95.3819580078125,95.3819580078125,0.0,94.4083251953125,94.4083251953125,0.0,1.0,1.0,0.0,'2',0.6538630127906799,0.6538630127906799,0.0,19.0
Neutral,stimuli/29M_NE_C.BMP,stimuli/29M_NE_C.BMP,stimuli/24M_NE_C.BMP,stimuli/EmptyFrame.bmp,stimuli/RedFrame.bmp,1,Neutral,Male,3,1,1.0,95.40922546386719,95.40922546386719,0.0,99.3935775756836,99.3935775756836,0.0,98.40492248535156,98.40492248535156,0.0,1.0,1.0,0.0,'1',0.5610371828079224,0.5610371828079224,0.0,20.0
Neutral,stimuli/11F_NE_C.BMP,stimuli/10F_NE_C.BMP,stimuli/11F_NE_C.BMP,stimuli/EmptyFrame.bmp,stimuli/RedFrame.bmp,2,Neutral,Female,3,1,1.0,99.4188232421875,99.4188232421875,0.0,103.40583801269531,103.40583801269531,0.0,102.4244613647461,102.4244613647461,0.0,1.0,1.0,0.0,'2',0.5224376916885376,0.5224376916885376,0.0,21.0
MatchShape,stimuli/MatchShapes.bmp,stimuli/EmptyFace.bmp,stimuli/EmptyFace.bmp,stimuli/EmptyFrame.bmp,stimuli/EmptyFrame.bmp,Null,None,None,3,1,1.0,103.4383316040039,103.4383316040039,0.0,107.41181945800781,107.41181945800781,0.0,106.42362976074219,106.42362976074219,0.0,0.0,0.0,0.0,,,,,22.0
Shape,stimuli/circle.bmp,stimuli/vertical.bmp,stimuli/circle.bmp,stimuli/EmptyFrame.bmp,stimuli/RedFrame.bmp,2,Shape,None,3,1,1.0,107.45034790039062,107.45034790039062,0.0,111.42811584472656,111.42811584472656,0.0,110.44182586669922,110.44182586669922,0.0,1.0,1.0,0.0,'2',0.611285388469696,0.611285388469696,0.0,23.0
Shape,stimuli/horizontal.bmp,stimuli/circle.bmp,stimuli/horizontal.bmp,stimuli/EmptyFrame.bmp,stimuli/RedFrame.bmp,2,Shape,None,3,1,1.0,111.4539566040039,111.4539566040039,0.0,115.44103240966797,115.44103240966797,0.0,114.45816802978516,114.45816802978516,0.0,1.0,1.0,0.0,'2',0.5677611231803894,0.5677611231803894,0.0,24.0
Shape,stimuli/circle.bmp,stimuli/vertical.bmp,stimuli/circle.bmp,stimuli/EmptyFrame.bmp,stimuli/RedFrame.bmp,2,Shape,None,3,1,1.0,115.4681167602539,115.4681167602539,0.0,119.45886993408203,119.45886993408203,0.0,118.46625518798828,118.46625518798828,0.0,1.0,1.0,0.0,'2',0.7089279890060425,0.7089279890060425,0.0,25.0
Shape,stimuli/vertical.bmp,stimuli/circle.bmp,stimuli/vertical.bmp,stimuli/EmptyFrame.bmp,stimuli/RedFrame.bmp,2,Shape,None,3,1,1.0,119.47998046875,119.47998046875,0.0,123.4692153930664,123.4692153930664,0.0,122.49105072021484,122.49105072021484,0.0,1.0,1.0,0.0,'2',0.5791215896606445,0.5791215896606445,0.0,26.0
Shape,stimuli/vertical.bmp,stimuli/horizontal.bmp,stimuli/vertical.bmp,stimuli/EmptyFrame.bmp,stimuli/RedFrame.bmp,2,Shape,None,3,1,1.0,123.49069213867188,123.49069213867188,0.0,127.48723602294922,127.48723602294922,0.0,126.50157165527344,126.50157165527344,0.0,1.0,1.0,0.0,'2',0.7187349796295166,0.7187349796295166,0.0,27.0
Shape,stimuli/horizontal.bmp,stimuli/horizontal.bmp,stimuli/vertical.bmp,stimuli/EmptyFrame.bmp,stimuli/RedFrame.bmp,1,Shape,None,3,1,1.0,127.50665283203125,127.50665283203125,0.0,131.51251220703125,131.51251220703125,0.0,130.51083374023438,130.51083374023438,0.0,1.0,1.0,0.0,'1',0.7747790813446045,0.7747790813446045,0.0,28.0
Shape,stimuli/horizontal.bmp,stimuli/circle.bmp,stimuli/horizontal.bmp,stimuli/EmptyFrame.bmp,stimuli/RedFrame.bmp,2,Shape,None,3,1,1.0,131.5348663330078,131.5348663330078,0.0,135.52825927734375,135.52825927734375,0.0,134.58328247070312,134.58328247070312,0.0,1.0,1.0,0.0,'2',0.6093887090682983,0.6093887090682983,0.0,29.0
Shape,stimuli/circle.bmp,stimuli/circle.bmp,stimuli/vertical.bmp,stimuli/EmptyFrame.bmp,stimuli/RedFrame.bmp,1,Shape,None,3,1,1.0,135.55406188964844,135.55406188964844,0.0,139.5405731201172,139.5405731201172,0.0,138.56375122070312,138.56375122070312,0.0,1.0,1.0,0.0,'1',0.727345883846283,0.727345883846283,0.0,30.0
Shape,stimuli/vertical.bmp,stimuli/horizontal.bmp,stimuli/vertical.bmp,stimuli/EmptyFrame.bmp,stimuli/RedFrame.bmp,2,Shape,None,3,1,1.0,139.5631866455078,139.5631866455078,0.0,143.55548095703125,143.55548095703125,0.0,142.57913208007812,142.57913208007812,0.0,1.0,1.0,0.0,'2',0.6454392075538635,0.6454392075538635,0.0,31.0
Shape,stimuli/vertical.bmp,stimuli/vertical.bmp,stimuli/horizontal.bmp,stimuli/EmptyFrame.bmp,stimuli/RedFrame.bmp,1,Shape,None,3,1,1.0,143.58567810058594,143.58567810058594,0.0,147.57818603515625,147.57818603515625,0.0,146.58192443847656,146.58192443847656,0.0,1.0,1.0,0.0,'1',0.6909064054489136,0.6909064054489136,0.0,32.0
MatchFaces,stimuli/MatchFaces.bmp,stimuli/EmptyFace.bmp,stimuli/EmptyFace.bmp,stimuli/EmptyFrame.bmp,stimuli/EmptyFrame.bmp,Null,None,None,3,1,1.0,147.76393127441406,147.76393127441406,0.0,151.58914184570312,151.58914184570312,0.0,150.5897216796875,150.5897216796875,0.0,0.0,0.0,0.0,,,,,33.0
Anger,stimuli/20M_AN_O.BMP,stimuli/34M_AN_O.BMP,stimuli/20M_AN_O.BMP,stimuli/EmptyFrame.bmp,stimuli/RedFrame.bmp,2,Anger,Male,3,1,1.0,151.70420837402344,151.70420837402344,0.0,155.6088104248047,155.6088104248047,0.0,154.62118530273438,154.62118530273438,0.0,1.0,1.0,0.0,'2',0.5942918062210083,0.5942918062210083,0.0,34.0
Anger,stimuli/01F_AN_O.bmp,stimuli/19F_AN_O.BMP,stimuli/01F_AN_O.bmp,stimuli/EmptyFrame.bmp,stimuli/RedFrame.bmp,2,Anger,Female,3,1,1.0,155.6402130126953,155.6402130126953,0.0,159.63267517089844,159.63267517089844,0.0,158.63839721679688,158.63839721679688,0.0,1.0,1.0,0.0,'2',0.6819126009941101,0.6819126009941101,0.0,35.0
Anger,stimuli/06F_AN_O.bmp,stimuli/15F_AN_O.BMP,stimuli/06F_AN_O.bmp,stimuli/EmptyFrame.bmp,stimuli/RedFrame.bmp,2,Anger,Female,3,1,1.0,159.66500854492188,159.66500854492188,0.0,163.64370727539062,163.64370727539062,0.0,162.6717987060547,162.6717987060547,0.0,1.0,1.0,0.0,'2',0.7729471921920776,0.7729471921920776,0.0,36.0
Anger,stimuli/42M_AN_O.BMP,stimuli/42M_AN_O.BMP,stimuli/43M_AN_O.BMP,stimuli/EmptyFrame.bmp,stimuli/RedFrame.bmp,1,Anger,Male,3,1,1.0,163.684326171875,163.684326171875,0.0,167.6630096435547,167.6630096435547,0.0,166.6654510498047,166.6654510498047,0.0,1.0,1.0,0.0,'1',0.6748098731040955,0.6748098731040955,0.0,37.0
Anger,stimuli/40M_AN_O.BMP,stimuli/41M_AN_O.BMP,stimuli/40M_AN_O.BMP,stimuli/EmptyFrame.bmp,stimuli/RedFrame.bmp,2,Anger,Male,3,1,1.0,167.6918182373047,167.6918182373047,0.0,171.70465087890625,171.70465087890625,0.0,170.6971893310547,170.6971893310547,0.0,1.0,1.0,0.0,'2',0.6068707704544067,0.6068707704544067,0.0,38.0
Anger,stimuli/08F_AN_O.BMP,stimuli/08F_AN_O.BMP,stimuli/13F_AN_O.BMP,stimuli/EmptyFrame.bmp,stimuli/RedFrame.bmp,1,Anger,Female,3,1,1.0,171.74041748046875,171.74041748046875,0.0,175.71719360351562,175.71719360351562,0.0,174.740234375,174.740234375,0.0,1.0,1.0,0.0,'1',0.6495857834815979,0.6495857834815979,0.0,39.0
Anger,stimuli/09F_AN_O.BMP,stimuli/12F_AN_O.BMP,stimuli/09F_AN_O.BMP,stimuli/EmptyFrame.bmp,stimuli/RedFrame.bmp,2,Anger,Female,3,1,1.0,175.74925231933594,175.74925231933594,0.0,179.7375030517578,179.7375030517578,0.0,178.74571228027344,178.74571228027344,0.0,1.0,1.0,0.0,'2',0.5931134223937988,0.5931134223937988,0.0,40.0
Anger,stimuli/34M_AN_O.BMP,stimuli/35M_AN_O.BMP,stimuli/34M_AN_O.BMP,stimuli/EmptyFrame.bmp,stimuli/RedFrame.bmp,2,Anger,Male,3,1,1.0,179.7681884765625,179.7681884765625,0.0,183.7518768310547,183.7518768310547,0.0,182.7680206298828,182.7680206298828,0.0,1.0,1.0,0.0,'2',0.6392810940742493,0.6392810940742493,0.0,41.0
Anger,stimuli/24M_AN_O.BMP,stimuli/24M_AN_O.BMP,stimuli/30M_AN_O.BMP,stimuli/EmptyFrame.bmp,stimuli/RedFrame.bmp,1,Anger,Male,3,1,1.0,183.78097534179688,183.78097534179688,0.0,187.77005004882812,187.77005004882812,0.0,186.78134155273438,186.78134155273438,0.0,1.0,1.0,0.0,'1',0.6761530041694641,0.6761530041694641,0.0,42.0
Anger,stimuli/03F_AN_O.bmp,stimuli/03F_AN_O.bmp,stimuli/17F_AN_O.BMP,stimuli/EmptyFrame.bmp,stimuli/RedFrame.bmp,1,Anger,Female,3,1,1.0,187.802978515625,187.802978515625,0.0,191.78115844726562,191.78115844726562,0.0,190.80072021484375,190.80072021484375,0.0,1.0,1.0,0.0,'1',0.7600839138031006,0.7600839138031006,0.0,43.0
MatchFaces,stimuli/MatchFaces.bmp,stimuli/EmptyFace.bmp,stimuli/EmptyFace.bmp,stimuli/EmptyFrame.bmp,stimuli/EmptyFrame.bmp,Null,None,None,3,1,1.0,192.12680053710938,192.12680053710938,0.0,195.78607177734375,195.78607177734375,0.0,194.7987823486328,194.7987823486328,0.0,0.0,0.0,0.0,,,,,44.0
Happy,stimuli/06F_HA_O.bmp,stimuli/07F_HA_O.BMP,stimuli/06F_HA_O.bmp,stimuli/EmptyFrame.bmp,stimuli/RedFrame.bmp,2,Happy,Female,3,1,1.0,195.8499755859375,195.8499755859375,0.0,199.8025360107422,199.8025360107422,0.0,198.81703186035156,198.81703186035156,0.0,1.0,1.0,0.0,'2',1.0572035312652588,1.0572035312652588,0.0,45.0
Happy,stimuli/13F_HA_O.BMP,stimuli/13F_HA_O.BMP,stimuli/12F_HA_O.BMP,stimuli/EmptyFrame.bmp,stimuli/RedFrame.bmp,1,Happy,Female,3,1,1.0,199.83164978027344,199.83164978027344,0.0,203.82310485839844,203.82310485839844,0.0,202.83505249023438,202.83505249023438,0.0,1.0,1.0,0.0,'1',0.705348014831543,0.705348014831543,0.0,46.0
Happy,stimuli/41M_HA_O.BMP,stimuli/41M_HA_O.BMP,stimuli/40M_HA_O.BMP,stimuli/EmptyFrame.bmp,stimuli/RedFrame.bmp,1,Happy,Male,3,1,1.0,203.8494873046875,203.8494873046875,0.0,207.83932495117188,207.83932495117188,0.0,206.8602294921875,206.8602294921875,0.0,1.0,1.0,0.0,'1',0.6873326897621155,0.6873326897621155,0.0,47.0
Happy,stimuli/03F_HA_O.bmp,stimuli/05F_HA_O.bmp,stimuli/03F_HA_O.bmp,stimuli/EmptyFrame.bmp,stimuli/RedFrame.bmp,2,Happy,Female,3,1,1.0,207.8653564453125,207.8653564453125,0.0,211.87142944335938,211.87142944335938,0.0,210.86524963378906,210.86524963378906,0.0,1.0,1.0,0.0,'2',0.7943422794342041,0.7943422794342041,0.0,48.0
Happy,stimuli/24M_HA_O.BMP,stimuli/24M_HA_O.BMP,stimuli/25M_HA_O.BMP,stimuli/EmptyFrame.bmp,stimuli/RedFrame.bmp,1,Happy,Male,3,1,1.0,211.90866088867188,211.90866088867188,0.0,215.88980102539062,215.88980102539062,0.0,214.91619873046875,214.91619873046875,0.0,1.0,1.0,0.0,'1',0.7460764050483704,0.7460764050483704,0.0,49.0
Happy,stimuli/19F_HA_O.BMP,stimuli/19F_HA_O.BMP,stimuli/18F_HA_O.BMP,stimuli/EmptyFrame.bmp,stimuli/RedFrame.bmp,1,Happy,Female,3,1,1.0,215.91705322265625,215.91705322265625,0.0,219.9006805419922,219.9006805419922,0.0,218.93154907226562,218.93154907226562,0.0,1.0,1.0,0.0,'1',0.6442968845367432,0.6442968845367432,0.0,50.0
Happy,stimuli/01F_HA_O.bmp,stimuli/01F_HA_O.bmp,stimuli/02F_HA_O.bmp,stimuli/EmptyFrame.bmp,stimuli/RedFrame.bmp,1,Happy,Female,3,1,1.0,219.93064880371094,219.93064880371094,0.0,223.9144744873047,223.9144744873047,0.0,222.92779541015625,222.92779541015625,0.0,1.0,1.0,0.0,'1',0.6520025134086609,0.6520025134086609,0.0,51.0
Happy,stimuli/22M_HA_O.BMP,stimuli/23M_HA_O.BMP,stimuli/22M_HA_O.BMP,stimuli/EmptyFrame.bmp,stimuli/RedFrame.bmp,2,Happy,Male,3,1,1.0,223.94595336914062,223.94595336914062,0.0,227.93714904785156,227.93714904785156,0.0,226.94589233398438,226.94589233398438,0.0,1.0,1.0,0.0,'2',1.4082497358322144,1.4082497358322144,0.0,52.0
Happy,stimuli/35M_HA_O.BMP,stimuli/34M_HA_O.BMP,stimuli/35M_HA_O.BMP,stimuli/EmptyFrame.bmp,stimuli/RedFrame.bmp,2,Happy,Male,3,1,1.0,227.9615478515625,227.9615478515625,0.0,231.9525909423828,231.9525909423828,0.0,230.9738006591797,230.9738006591797,0.0,1.0,1.0,0.0,'2',1.0777642726898193,1.0777642726898193,0.0,53.0
Happy,stimuli/39M_HA_O.BMP,stimuli/38M_HA_O.BMP,stimuli/39M_HA_O.BMP,stimuli/EmptyFrame.bmp,stimuli/RedFrame.bmp,2,Happy,Male,3,1,1.0,231.98326110839844,231.98326110839844,0.0,235.9697265625,235.9697265625,0.0,234.98988342285156,234.98988342285156,0.0,1.0,1.0,0.0,'2',0.8915449976921082,0.8915449976921082,0.0,54.0
Match Shape,stimuli/MatchShapes.bmp,stimuli/EmptyFace.bmp,stimuli/EmptyFace.bmp,stimuli/EmptyFrame.bmp,stimuli/EmptyFrame.bmp,Null,None,None,3,1,1.0,235.99319458007812,235.99319458007812,0.0,239.9719696044922,239.9719696044922,0.0,238.98439025878906,238.98439025878906,0.0,0.0,0.0,0.0,,,,,55.0
Shape,stimuli/horizontal.bmp,stimuli/horizontal.bmp,stimuli/vertical.bmp,stimuli/EmptyFrame.bmp,stimuli/RedFrame.bmp,1,Shape,None,3,1,1.0,240.00291442871094,240.00291442871094,0.0,243.9837646484375,243.9837646484375,0.0,243.01162719726562,243.01162719726562,0.0,1.0,1.0,0.0,'1',0.719576895236969,0.719576895236969,0.0,56.0
Shape,stimuli/horizontal.bmp,stimuli/horizontal.bmp,stimuli/circle.bmp,stimuli/EmptyFrame.bmp,stimuli/RedFrame.bmp,1,Shape,None,3,1,1.0,244.0096893310547,244.0096893310547,0.0,247.9940643310547,247.9940643310547,0.0,247.00735473632812,247.00735473632812,0.0,1.0,1.0,0.0,'1',0.6268067955970764,0.6268067955970764,0.0,57.0
Shape,stimuli/circle.bmp,stimuli/vertical.bmp,stimuli/circle.bmp,stimuli/EmptyFrame.bmp,stimuli/RedFrame.bmp,2,Shape,None,3,1,1.0,248.02139282226562,248.02139282226562,0.0,252.00933837890625,252.00933837890625,0.0,251.02462768554688,251.02462768554688,0.0,1.0,1.0,0.0,'2',0.6036422848701477,0.6036422848701477,0.0,58.0
Shape,stimuli/vertical.bmp,stimuli/vertical.bmp,stimuli/circle.bmp,stimuli/EmptyFrame.bmp,stimuli/RedFrame.bmp,1,Shape,None,3,1,1.0,252.03421020507812,252.03421020507812,0.0,256.025634765625,256.025634765625,0.0,255.0346221923828,255.0346221923828,0.0,1.0,1.0,0.0,'1',0.6195216178894043,0.6195216178894043,0.0,59.0
Shape,stimuli/horizontal.bmp,stimuli/horizontal.bmp,stimuli/circle.bmp,stimuli/EmptyFrame.bmp,stimuli/RedFrame.bmp,1,Shape,None,3,1,1.0,256.0498962402344,256.0498962402344,0.0,260.0412902832031,260.0412902832031,0.0,259.0832824707031,259.0832824707031,0.0,1.0,1.0,0.0,'1',0.6637052893638611,0.6637052893638611,0.0,60.0
Shape,stimuli/vertical.bmp,stimuli/vertical.bmp,stimuli/circle.bmp,stimuli/EmptyFrame.bmp,stimuli/RedFrame.bmp,1,Shape,None,3,1,1.0,260.06622314453125,260.06622314453125,0.0,264.07196044921875,264.07196044921875,0.0,263.08245849609375,263.08245849609375,0.0,1.0,1.0,0.0,'1',0.6716572046279907,0.6716572046279907,0.0,61.0
Shape,stimuli/horizontal.bmp,stimuli/circle.bmp,stimuli/horizontal.bmp,stimuli/EmptyFrame.bmp,stimuli/RedFrame.bmp,2,Shape,None,3,1,1.0,264.0972595214844,264.0972595214844,0.0,268.09344482421875,268.09344482421875,0.0,267.1042785644531,267.1042785644531,0.0,1.0,1.0,0.0,'2',0.6959787011146545,0.6959787011146545,0.0,62.0
Shape,stimuli/circle.bmp,stimuli/circle.bmp,stimuli/horizontal.bmp,stimuli/EmptyFrame.bmp,stimuli/RedFrame.bmp,1,Shape,None,3,1,1.0,268.12152099609375,268.12152099609375,0.0,272.113037109375,272.113037109375,0.0,271.1250305175781,271.1250305175781,0.0,1.0,1.0,0.0,'1',0.6283637285232544,0.6283637285232544,0.0,63.0
Shape,stimuli/circle.bmp,stimuli/horizontal.bmp,stimuli/circle.bmp,stimuli/EmptyFrame.bmp,stimuli/RedFrame.bmp,2,Shape,None,3,1,1.0,272.136474609375,272.136474609375,0.0,276.1327209472656,276.1327209472656,0.0,275.13470458984375,275.13470458984375,0.0,1.0,1.0,0.0,'2',0.5648828744888306,0.5648828744888306,0.0,64.0
Shape,stimuli/vertical.bmp,stimuli/vertical.bmp,stimuli/horizontal.bmp,stimuli/EmptyFrame.bmp,stimuli/RedFrame.bmp,1,Shape,None,3,1,1.0,276.1693115234375,276.1693115234375,0.0,280.1455383300781,280.1455383300781,0.0,279.16650390625,279.16650390625,0.0,1.0,1.0,0.0,'1',0.5733370780944824,0.5733370780944824,0.0,65.0
MatchFaces,stimuli/MatchFaces.bmp,stimuli/EmptyFace.bmp,stimuli/EmptyFace.bmp,stimuli/EmptyFrame.bmp,stimuli/EmptyFrame.bmp,Null,None,None,3,1,1.0,280.37615966796875,280.37615966796875,0.0,284.1480712890625,284.1480712890625,0.0,283.16156005859375,283.16156005859375,0.0,0.0,0.0,0.0,,,,,66.0
Neutral,stimuli/20M_NE_C.BMP,stimuli/21M_NE_C.BMP,stimuli/20M_NE_C.BMP,stimuli/EmptyFrame.bmp,stimuli/RedFrame.bmp,2,Neutral,Male,3,1,1.0,284.2210388183594,284.2210388183594,0.0,288.164794921875,288.164794921875,0.0,287.1840515136719,287.1840515136719,0.0,1.0,1.0,0.0,'2',1.284554123878479,1.284554123878479,0.0,67.0
Neutral,stimuli/01F_NE_C.bmp,stimuli/01F_NE_C.bmp,stimuli/02F_NE_C.bmp,stimuli/EmptyFrame.bmp,stimuli/RedFrame.bmp,1,Neutral,Female,3,1,1.0,288.196044921875,288.196044921875,0.0,292.1781921386719,292.1781921386719,0.0,291.1945495605469,291.1945495605469,0.0,1.0,1.0,0.0,'1',0.7295916080474854,0.7295916080474854,0.0,68.0
Neutral,stimuli/22M_NE_C.BMP,stimuli/23M_NE_C.BMP,stimuli/22M_NE_C.BMP,stimuli/EmptyFrame.bmp,stimuli/RedFrame.bmp,2,Neutral,Male,3,1,1.0,292.2055358886719,292.2055358886719,0.0,296.19622802734375,296.19622802734375,0.0,295.20355224609375,295.20355224609375,0.0,1.0,1.0,0.0,'2',1.221453070640564,1.221453070640564,0.0,69.0
Neutral,stimuli/24M_NE_C.BMP,stimuli/24M_NE_C.BMP,stimuli/25M_NE_C.BMP,stimuli/EmptyFrame.bmp,stimuli/RedFrame.bmp,1,Neutral,Male,3,1,1.0,296.21923828125,296.21923828125,0.0,300.21875,300.21875,0.0,299.23291015625,299.23291015625,0.0,1.0,1.0,0.0,'1',0.8749186992645264,0.8749186992645264,0.0,70.0
Neutral,stimuli/03F_NE_C.bmp,stimuli/05F_NE_C.bmp,stimuli/03F_NE_C.bmp,stimuli/EmptyFrame.bmp,stimuli/RedFrame.bmp,2,Neutral,Female,3,1,1.0,300.2501220703125,300.2501220703125,0.0,304.23138427734375,304.23138427734375,0.0,303.24774169921875,303.24774169921875,0.0,1.0,1.0,0.0,'2',0.7282159924507141,0.7282159924507141,0.0,71.0
Neutral,stimuli/26M_NE_C.BMP,stimuli/26M_NE_C.BMP,stimuli/27M_NE_C.BMP,stimuli/EmptyFrame.bmp,stimuli/RedFrame.bmp,1,Neutral,Male,3,1,1.0,304.2547302246094,304.2547302246094,0.0,308.24932861328125,308.24932861328125,0.0,307.2655029296875,307.2655029296875,0.0,1.0,1.0,0.0,'1',0.6953774094581604,0.6953774094581604,0.0,72.0
Neutral,stimuli/06F_NE_C.bmp,stimuli/07F_NE_C.BMP,stimuli/06F_NE_C.bmp,stimuli/EmptyFrame.bmp,stimuli/RedFrame.bmp,2,Neutral,Female,3,1,1.0,308.27239990234375,308.27239990234375,0.0,312.2738952636719,312.2738952636719,0.0,311.2731628417969,311.2731628417969,0.0,1.0,1.0,0.0,'2',0.7197862267494202,0.7197862267494202,0.0,73.0
Neutral,stimuli/08F_NE_C.BMP,stimuli/08F_NE_C.BMP,stimuli/09F_NE_C.BMP,stimuli/EmptyFrame.bmp,stimuli/RedFrame.bmp,1,Neutral,Female,3,1,1.0,312.2940368652344,312.2940368652344,0.0,316.2989501953125,316.2989501953125,0.0,315.30108642578125,315.30108642578125,0.0,1.0,1.0,0.0,'1',0.792144775390625,0.792144775390625,0.0,74.0
Neutral,stimuli/28M_NE_C.BMP,stimuli/29M_NE_C.BMP,stimuli/28M_NE_C.BMP,stimuli/EmptyFrame.bmp,stimuli/RedFrame.bmp,2,Neutral,Male,3,1,1.0,316.3248596191406,316.3248596191406,0.0,320.31048583984375,320.31048583984375,0.0,319.3226623535156,319.3226623535156,0.0,1.0,1.0,0.0,'2',0.8158107995986938,0.8158107995986938,0.0,75.0
Neutral,stimuli/10F_NE_C.BMP,stimuli/10F_NE_C.BMP,stimuli/06F_NE_C.bmp,stimuli/EmptyFrame.bmp,stimuli/RedFrame.bmp,1,Neutral,Female,3,1,1.0,320.3352355957031,320.3352355957031,0.0,324.3219299316406,324.3219299316406,0.0,323.3312683105469,323.3312683105469,0.0,1.0,1.0,0.0,'1',0.6597095727920532,0.6597095727920532,0.0,76.0
MatchFaces,stimuli/MatchFaces.bmp,stimuli/EmptyFace.bmp,stimuli/EmptyFace.bmp,stimuli/EmptyFrame.bmp,stimuli/EmptyFrame.bmp,Null,None,None,3,1,1.0,324.51220703125,324.51220703125,0.0,328.32781982421875,328.32781982421875,0.0,327.33941650390625,327.33941650390625,0.0,0.0,0.0,0.0,,,,,77.0
Happy,stimuli/28M_HA_O.BMP,stimuli/29M_HA_O.BMP,stimuli/28M_HA_O.BMP,stimuli/EmptyFrame.bmp,stimuli/RedFrame.bmp,2,Happy,Male,3,1,1.0,328.428466796875,328.428466796875,0.0,332.3453063964844,332.3453063964844,0.0,331.3639831542969,331.3639831542969,0.0,1.0,1.0,0.0,'2',0.9541383981704712,0.9541383981704712,0.0,78.0
Happy,stimuli/10F_HA_O.BMP,stimuli/10F_HA_O.BMP,stimuli/06F_HA_O.bmp,stimuli/EmptyFrame.bmp,stimuli/RedFrame.bmp,1,Happy,Female,3,1,1.0,332.3695373535156,332.3695373535156,0.0,336.3655700683594,336.3655700683594,0.0,335.375732421875,335.375732421875,0.0,1.0,1.0,0.0,'1',0.6726021766662598,0.6726021766662598,0.0,79.0
Happy,stimuli/26M_HA_O.BMP,stimuli/26M_HA_O.BMP,stimuli/27M_HA_O.BMP,stimuli/EmptyFrame.bmp,stimuli/RedFrame.bmp,1,Happy,Male,3,1,1.0,336.38861083984375,336.38861083984375,0.0,340.38507080078125,340.38507080078125,0.0,339.4020690917969,339.4020690917969,0.0,1.0,1.0,0.0,'1',0.6575856804847717,0.6575856804847717,0.0,80.0
Happy,stimuli/20M_HA_O.BMP,stimuli/21M_HA_O.BMP,stimuli/20M_HA_O.BMP,stimuli/EmptyFrame.bmp,stimuli/RedFrame.bmp,2,Happy,Male,3,1,1.0,340.41094970703125,340.41094970703125,0.0,344.4036560058594,344.4036560058594,0.0,343.4163513183594,343.4163513183594,0.0,1.0,1.0,0.0,'2',0.8793513774871826,0.8793513774871826,0.0,81.0
Happy,stimuli/37M_HA_O.BMP,stimuli/37M_HA_O.BMP,stimuli/36M_HA_O.BMP,stimuli/EmptyFrame.bmp,stimuli/RedFrame.bmp,1,Happy,Male,3,1,1.0,344.4317932128906,344.4317932128906,0.0,348.4125671386719,348.4125671386719,0.0,347.4283752441406,347.4283752441406,0.0,1.0,1.0,0.0,'1',0.798276424407959,0.798276424407959,0.0,82.0
Happy,stimuli/43M_HA_O.BMP,stimuli/42M_HA_O.BMP,stimuli/43M_HA_O.BMP,stimuli/EmptyFrame.bmp,stimuli/RedFrame.bmp,2,Happy,Male,3,1,1.0,348.4384765625,348.4384765625,0.0,352.4280700683594,352.4280700683594,0.0,351.44464111328125,351.44464111328125,0.0,1.0,1.0,0.0,'2',0.7548567056655884,0.7548567056655884,0.0,83.0
Happy,stimuli/11F_HA_O.BMP,stimuli/10F_HA_O.BMP,stimuli/11F_HA_O.BMP,stimuli/EmptyFrame.bmp,stimuli/RedFrame.bmp,2,Happy,Female,3,1,1.0,352.45135498046875,352.45135498046875,0.0,356.4402160644531,356.4402160644531,0.0,355.4577941894531,355.4577941894531,0.0,1.0,1.0,0.0,'2',0.7047690153121948,0.7047690153121948,0.0,84.0
Happy,stimuli/17F_HA_O.BMP,stimuli/16F_HA_O.BMP,stimuli/17F_HA_O.BMP,stimuli/EmptyFrame.bmp,stimuli/RedFrame.bmp,2,Happy,Female,3,1,1.0,356.4704284667969,356.4704284667969,0.0,360.46038818359375,360.46038818359375,0.0,359.46795654296875,359.46795654296875,0.0,1.0,1.0,0.0,'2',0.7906914949417114,0.7906914949417114,0.0,85.0
Happy,stimuli/15F_HA_O.BMP,stimuli/15F_HA_O.BMP,stimuli/14F_HA_O.BMP,stimuli/EmptyFrame.bmp,stimuli/RedFrame.bmp,1,Happy,Female,3,1,1.0,360.5253601074219,360.5253601074219,0.0,364.48162841796875,364.48162841796875,0.0,363.48675537109375,363.48675537109375,0.0,1.0,1.0,0.0,'1',0.8672810196876526,0.8672810196876526,0.0,86.0
Happy,stimuli/08F_HA_O.BMP,stimuli/08F_HA_O.BMP,stimuli/09F_HA_O.BMP,stimuli/EmptyFrame.bmp,stimuli/RedFrame.bmp,1,Happy,Female,3,1,1.0,364.5086364746094,364.5086364746094,0.0,368.49981689453125,368.49981689453125,0.0,367.51751708984375,367.51751708984375,0.0,1.0,1.0,0.0,'1',1.1811541318893433,1.1811541318893433,0.0,87.0
MatchFaces,stimuli/MatchFaces.bmp,stimuli/EmptyFace.bmp,stimuli/EmptyFace.bmp,stimuli/EmptyFrame.bmp,stimuli/EmptyFrame.bmp,Null,None,None,3,1,1.0,368.7209167480469,368.7209167480469,0.0,372.50335693359375,372.50335693359375,0.0,371.51239013671875,371.51239013671875,0.0,0.0,0.0,0.0,,,,,88.0
Fear,stimuli/34M_FE_O.BMP,stimuli/34M_FE_O.BMP,stimuli/33M_FE_O.BMP,stimuli/EmptyFrame.bmp,stimuli/RedFrame.bmp,1,Fear,Male,3,1,1.0,372.5821838378906,372.5821838378906,0.0,376.5141296386719,376.5141296386719,0.0,375.5343017578125,375.5343017578125,0.0,1.0,1.0,0.0,'1',0.7151463031768799,0.7151463031768799,0.0,89.0
Fear,stimuli/28M_FE_O.BMP,stimuli/28M_FE_O.BMP,stimuli/25M_FE_O.BMP,stimuli/EmptyFrame.bmp,stimuli/RedFrame.bmp,1,Fear,Male,3,1,1.0,376.5382080078125,376.5382080078125,0.0,380.5289611816406,380.5289611816406,0.0,379.5361022949219,379.5361022949219,0.0,1.0,1.0,0.0,'1',0.7782955169677734,0.7782955169677734,0.0,90.0
Fear,stimuli/11F_FE_O.BMP,stimuli/10F_FE_O.BMP,stimuli/11F_FE_O.BMP,stimuli/EmptyFrame.bmp,stimuli/RedFrame.bmp,2,Fear,Female,3,1,1.0,380.5524597167969,380.5524597167969,0.0,384.5391845703125,384.5391845703125,0.0,383.5577392578125,383.5577392578125,0.0,1.0,1.0,0.0,'2',0.6312044858932495,0.6312044858932495,0.0,91.0
Fear,stimuli/27M_FE_O.BMP,stimuli/26M_FE_O.BMP,stimuli/27M_FE_O.BMP,stimuli/EmptyFrame.bmp,stimuli/RedFrame.bmp,2,Fear,Male,3,1,1.0,384.566162109375,384.566162109375,0.0,388.5506591796875,388.5506591796875,0.0,387.5826721191406,387.5826721191406,0.0,1.0,1.0,0.0,'2',0.8294748067855835,0.8294748067855835,0.0,92.0
Fear,stimuli/11F_FE_O.BMP,stimuli/12F_FE_O.BMP,stimuli/11F_FE_O.BMP,stimuli/EmptyFrame.bmp,stimuli/RedFrame.bmp,2,Fear,Female,3,1,1.0,388.5738525390625,388.5738525390625,0.0,392.5657958984375,392.5657958984375,0.0,391.57733154296875,391.57733154296875,0.0,1.0,1.0,0.0,'2',1.0637974739074707,1.0637974739074707,0.0,93.0
Fear,stimuli/31M_FE_O.BMP,stimuli/31M_FE_O.BMP,stimuli/38M_FE_O.BMP,stimuli/EmptyFrame.bmp,stimuli/RedFrame.bmp,1,Fear,Male,3,1,1.0,392.59539794921875,392.59539794921875,0.0,396.5865783691406,396.5865783691406,0.0,395.5964660644531,395.5964660644531,0.0,1.0,1.0,0.0,'1',0.6836044192314148,0.6836044192314148,0.0,94.0
Fear,stimuli/29M_FE_O.BMP,stimuli/29M_FE_O.BMP,stimuli/24M_FE_O.BMP,stimuli/EmptyFrame.bmp,stimuli/RedFrame.bmp,1,Fear,Male,3,1,1.0,396.61224365234375,396.61224365234375,0.0,400.6046447753906,400.6046447753906,0.0,399.6145935058594,399.6145935058594,0.0,1.0,1.0,0.0,'1',0.7228918075561523,0.7228918075561523,0.0,95.0
Fear,stimuli/25M_FE_O.BMP,stimuli/29M_FE_O.BMP,stimuli/25M_FE_O.BMP,stimuli/EmptyFrame.bmp,stimuli/RedFrame.bmp,2,Fear,Male,3,1,1.0,400.6258544921875,400.6258544921875,0.0,404.62542724609375,404.62542724609375,0.0,403.64300537109375,403.64300537109375,0.0,1.0,1.0,0.0,'2',0.6587337851524353,0.6587337851524353,0.0,96.0
Fear,stimuli/15F_FE_O.BMP,stimuli/18F_FE_O.BMP,stimuli/15F_FE_O.BMP,stimuli/EmptyFrame.bmp,stimuli/RedFrame.bmp,2,Fear,Female,3,1,1.0,404.68621826171875,404.68621826171875,0.0,408.643310546875,408.643310546875,0.0,407.66229248046875,407.66229248046875,0.0,1.0,1.0,0.0,'2',0.9878770112991333,0.9878770112991333,0.0,97.0
Fear,stimuli/09F_FE_O.BMP,stimuli/09F_FE_O.BMP,stimuli/12F_FE_O.BMP,stimuli/EmptyFrame.bmp,stimuli/RedFrame.bmp,1,Fear,Female,3,1,1.0,408.6685485839844,408.6685485839844,0.0,412.6684875488281,412.6684875488281,0.0,411.6731872558594,411.6731872558594,0.0,1.0,1.0,0.0,'1',0.5861936211585999,0.5861936211585999,0.0,98.0
MatchFaces,stimuli/MatchFaces.bmp,stimuli/EmptyFace.bmp,stimuli/EmptyFace.bmp,stimuli/EmptyFrame.bmp,stimuli/EmptyFrame.bmp,Null,None,None,3,1,1.0,412.8302917480469,412.8302917480469,0.0,416.6709899902344,416.6709899902344,0.0,415.6824645996094,415.6824645996094,0.0,0.0,0.0,0.0,,,,,99.0
Anger,stimuli/23M_AN_O.BMP,stimuli/23M_AN_O.BMP,stimuli/31M_AN_O.BMP,stimuli/EmptyFrame.bmp,stimuli/RedFrame.bmp,1,Anger,Male,3,1,1.0,416.73590087890625,416.73590087890625,0.0,420.6887512207031,420.6887512207031,0.0,419.7013854980469,419.7013854980469,0.0,1.0,1.0,0.0,'1',0.7175012230873108,0.7175012230873108,0.0,100.0
Anger,stimuli/36M_AN_O.BMP,stimuli/37M_AN_O.BMP,stimuli/36M_AN_O.BMP,stimuli/EmptyFrame.bmp,stimuli/RedFrame.bmp,2,Anger,Male,3,1,1.0,420.7135314941406,420.7135314941406,0.0,424.7027893066406,424.7027893066406,0.0,423.7184143066406,423.7184143066406,0.0,1.0,1.0,0.0,'2',0.8426892757415771,0.8426892757415771,0.0,101.0
Anger,stimuli/38M_AN_O.BMP,stimuli/39M_AN_O.BMP,stimuli/38M_AN_O.BMP,stimuli/EmptyFrame.bmp,stimuli/RedFrame.bmp,2,Anger,Male,3,1,1.0,424.7286682128906,424.7286682128906,0.0,428.72259521484375,428.72259521484375,0.0,427.74017333984375,427.74017333984375,0.0,1.0,1.0,0.0,'2',0.9257786870002747,0.9257786870002747,0.0,102.0
Anger,stimuli/02f_an_o.bmp,stimuli/18F_AN_O.BMP,stimuli/02f_an_o.bmp,stimuli/EmptyFrame.bmp,stimuli/RedFrame.bmp,2,Anger,Female,3,1,1.0,428.7583923339844,428.7583923339844,0.0,432.7553405761719,432.7553405761719,0.0,431.75433349609375,431.75433349609375,0.0,1.0,1.0,0.0,'2',0.8633639812469482,0.8633639812469482,0.0,103.0
Anger,stimuli/22M_AN_O.BMP,stimuli/32M_AN_O.BMP,stimuli/22M_AN_O.BMP,stimuli/EmptyFrame.bmp,stimuli/RedFrame.bmp,2,Anger,Male,3,1,1.0,432.7908630371094,432.7908630371094,0.0,436.76629638671875,436.76629638671875,0.0,435.7875061035156,435.7875061035156,0.0,1.0,1.0,0.0,'2',0.9029955267906189,0.9029955267906189,0.0,104.0
Anger,stimuli/12F_AN_O.BMP,stimuli/12F_AN_O.BMP,stimuli/13F_AN_O.BMP,stimuli/EmptyFrame.bmp,stimuli/RedFrame.bmp,1,Anger,Female,3,1,1.0,436.7889404296875,436.7889404296875,0.0,440.7777099609375,440.7777099609375,0.0,439.7995910644531,439.7995910644531,0.0,1.0,1.0,0.0,'1',0.7721756100654602,0.7721756100654602,0.0,105.0
Anger,stimuli/05F_AN_O.bmp,stimuli/05F_AN_O.bmp,stimuli/16F_AN_O.BMP,stimuli/EmptyFrame.bmp,stimuli/RedFrame.bmp,1,Anger,Female,3,1,1.0,440.8104553222656,440.8104553222656,0.0,444.8002624511719,444.8002624511719,0.0,443.80169677734375,443.80169677734375,0.0,1.0,1.0,0.0,'1',0.7797369956970215,0.7797369956970215,0.0,106.0
Anger,stimuli/21M_AN_O.BMP,stimuli/21M_AN_O.BMP,stimuli/33M_AN_O.BMP,stimuli/EmptyFrame.bmp,stimuli/RedFrame.bmp,1,Anger,Male,3,1,1.0,444.8316650390625,444.8316650390625,0.0,448.8118591308594,448.8118591308594,0.0,447.8389892578125,447.8389892578125,0.0,1.0,1.0,0.0,'1',0.6920905709266663,0.6920905709266663,0.0,107.0
Anger,stimuli/07F_AN_O.BMP,stimuli/07F_AN_O.BMP,stimuli/14F_AN_O.BMP,stimuli/EmptyFrame.bmp,stimuli/RedFrame.bmp,1,Anger,Female,3,1,1.0,448.8422546386719,448.8422546386719,0.0,452.83721923828125,452.83721923828125,0.0,451.84942626953125,451.84942626953125,0.0,1.0,1.0,0.0,'1',0.6801018118858337,0.6801018118858337,0.0,108.0
Anger,stimuli/10F_AN_O.BMP,stimuli/10F_AN_O.BMP,stimuli/11F_AN_O.BMP,stimuli/EmptyFrame.bmp,stimuli/RedFrame.bmp,1,Anger,Female,3,1,1.0,452.8726806640625,452.8726806640625,0.0,456.84881591796875,456.84881591796875,0.0,455.8747863769531,455.8747863769531,0.0,1.0,1.0,0.0,'1',0.7755520939826965,0.7755520939826965,0.0,109.0

extraInfo
participant,sub007
session,002
date,2025_May_28_0907
expName,HaririTask_Ver2
psychopyVersion,3.0.1
frameRate,None
