TrialType,Top,Left,Right,EmptyFrame,SelectedFrame,Correct,Emotion,Gender,TrialLength,FixationLength,n,GCFaceStartTime_mean,GCFaceStartTime_raw,GCFaceStartTime_std,GCPostFaceFixationEndTime_mean,GCPostFaceFixationEndTime_raw,GCPostFaceFixationEndTime_std,GCPostFaceFixationStartTime_mean,GCPostFaceFixationStartTime_raw,GCPostFaceFixationStartTime_std,key_resp_trial.corr_mean,key_resp_trial.corr_raw,key_resp_trial.corr_std,key_resp_trial.keys_raw,key_resp_trial.rt_mean,key_resp_trial.rt_raw,key_resp_trial.rt_std,order
MatchFaces,stimuli/MatchFaces.bmp,stimuli/EmptyFace.bmp,stimuli/EmptyFace.bmp,stimuli/EmptyFrame.bmp,stimuli/EmptyFrame.bmp,Null,None,None,3,1,1.0,15.260735511779785,15.260735511779785,0.0,19.06378746032715,19.06378746032715,0.0,18.064441680908203,18.064441680908203,0.0,0.0,0.0,0.0,,,,,0.0
Anger,stimuli/01F_AN_O.bmp,stimuli/19F_AN_O.BMP,stimuli/01F_AN_O.bmp,stimuli/EmptyFrame.bmp,stimuli/RedFrame.bmp,2,Anger,Female,3,1,1.0,19.22626495361328,19.22626495361328,0.0,23.08413314819336,23.08413314819336,0.0,22.094316482543945,22.094316482543945,0.0,1.0,1.0,0.0,'2',0.8285145163536072,0.8285145163536072,0.0,1.0
Anger,stimuli/02f_an_o.bmp,stimuli/18F_AN_O.BMP,stimuli/02f_an_o.bmp,stimuli/EmptyFrame.bmp,stimuli/RedFrame.bmp,2,Anger,Female,3,1,1.0,23.11537742614746,23.11537742614746,0.0,27.09478187561035,27.09478187561035,0.0,26.12908172607422,26.12908172607422,0.0,1.0,1.0,0.0,'2',0.9134165048599243,0.9134165048599243,0.0,2.0
Anger,stimuli/20M_AN_O.BMP,stimuli/34M_AN_O.BMP,stimuli/20M_AN_O.BMP,stimuli/EmptyFrame.bmp,stimuli/RedFrame.bmp,2,Anger,Male,3,1,1.0,27.1278018951416,27.1278018951416,0.0,31.110530853271484,31.110530853271484,0.0,30.131126403808594,30.131126403808594,0.0,1.0,1.0,0.0,'2',0.929705798625946,0.929705798625946,0.0,3.0
Anger,stimuli/03F_AN_O.bmp,stimuli/03F_AN_O.bmp,stimuli/17F_AN_O.BMP,stimuli/EmptyFrame.bmp,stimuli/RedFrame.bmp,1,Anger,Female,3,1,1.0,31.142024993896484,31.142024993896484,0.0,35.12001419067383,35.12001419067383,0.0,34.14805221557617,34.14805221557617,0.0,1.0,1.0,0.0,'1',0.8250972032546997,0.8250972032546997,0.0,4.0
Anger,stimuli/21M_AN_O.BMP,stimuli/21M_AN_O.BMP,stimuli/33M_AN_O.BMP,stimuli/EmptyFrame.bmp,stimuli/RedFrame.bmp,1,Anger,Male,3,1,1.0,35.1524543762207,35.1524543762207,0.0,39.13492202758789,39.13492202758789,0.0,38.15814971923828,38.15814971923828,0.0,1.0,1.0,0.0,'1',0.8458178043365479,0.8458178043365479,0.0,5.0
Anger,stimuli/22M_AN_O.BMP,stimuli/32M_AN_O.BMP,stimuli/22M_AN_O.BMP,stimuli/EmptyFrame.bmp,stimuli/RedFrame.bmp,2,Anger,Male,3,1,1.0,39.16265869140625,39.16265869140625,0.0,43.148101806640625,43.148101806640625,0.0,42.16901397705078,42.16901397705078,0.0,1.0,1.0,0.0,'2',0.6213417053222656,0.6213417053222656,0.0,6.0
Anger,stimuli/23M_AN_O.BMP,stimuli/23M_AN_O.BMP,stimuli/31M_AN_O.BMP,stimuli/EmptyFrame.bmp,stimuli/RedFrame.bmp,1,Anger,Male,3,1,1.0,43.177860260009766,43.177860260009766,0.0,47.16402053833008,47.16402053833008,0.0,46.17278289794922,46.17278289794922,0.0,1.0,1.0,0.0,'1',0.8679664731025696,0.8679664731025696,0.0,7.0
Anger,stimuli/05F_AN_O.bmp,stimuli/05F_AN_O.bmp,stimuli/16F_AN_O.BMP,stimuli/EmptyFrame.bmp,stimuli/RedFrame.bmp,1,Anger,Female,3,1,1.0,47.19865036010742,47.19865036010742,0.0,51.17966079711914,51.17966079711914,0.0,50.19306182861328,50.19306182861328,0.0,1.0,1.0,0.0,'1',0.6275867223739624,0.6275867223739624,0.0,8.0
Anger,stimuli/06F_AN_O.bmp,stimuli/15F_AN_O.BMP,stimuli/06F_AN_O.bmp,stimuli/EmptyFrame.bmp,stimuli/RedFrame.bmp,2,Anger,Female,3,1,1.0,51.208396911621094,51.208396911621094,0.0,55.1990966796875,55.1990966796875,0.0,54.201133728027344,54.201133728027344,0.0,1.0,1.0,0.0,'2',0.6535528898239136,0.6535528898239136,0.0,9.0
Anger,stimuli/24M_AN_O.BMP,stimuli/24M_AN_O.BMP,stimuli/30M_AN_O.BMP,stimuli/EmptyFrame.bmp,stimuli/RedFrame.bmp,1,Anger,Male,3,1,1.0,55.23318862915039,55.23318862915039,0.0,59.21186065673828,59.21186065673828,0.0,58.23036575317383,58.23036575317383,0.0,1.0,1.0,0.0,'1',0.7071264982223511,0.7071264982223511,0.0,10.0
MatchShape,stimuli/MatchShapes.bmp,stimuli/EmptyFace.bmp,stimuli/EmptyFace.bmp,stimuli/EmptyFrame.bmp,stimuli/EmptyFrame.bmp,Null,None,None,3,1,1.0,59.241310119628906,59.241310119628906,0.0,63.22393798828125,63.22393798828125,0.0,62.22977066040039,62.22977066040039,0.0,0.0,0.0,0.0,,,,,11.0
Shape,stimuli/horizontal.bmp,stimuli/horizontal.bmp,stimuli/circle.bmp,stimuli/EmptyFrame.bmp,stimuli/RedFrame.bmp,1,Shape,None,3,1,1.0,63.26424026489258,63.26424026489258,0.0,67.23605346679688,67.23605346679688,0.0,66.26240539550781,66.26240539550781,0.0,1.0,1.0,0.0,'1',0.6943475008010864,0.6943475008010864,0.0,12.0
Shape,stimuli/vertical.bmp,stimuli/horizontal.bmp,stimuli/vertical.bmp,stimuli/EmptyFrame.bmp,stimuli/RedFrame.bmp,2,Shape,None,3,1,1.0,67.26488494873047,67.26488494873047,0.0,71.25106811523438,71.25106811523438,0.0,70.26272583007812,70.26272583007812,0.0,1.0,1.0,0.0,'2',1.1978604793548584,1.1978604793548584,0.0,13.0
Shape,stimuli/horizontal.bmp,stimuli/horizontal.bmp,stimuli/vertical.bmp,stimuli/EmptyFrame.bmp,stimuli/RedFrame.bmp,1,Shape,None,3,1,1.0,71.27749633789062,71.27749633789062,0.0,75.27410888671875,75.27410888671875,0.0,74.28311920166016,74.28311920166016,0.0,1.0,1.0,0.0,'1',1.1271506547927856,1.1271506547927856,0.0,14.0
Shape,stimuli/horizontal.bmp,stimuli/circle.bmp,stimuli/horizontal.bmp,stimuli/EmptyFrame.bmp,stimuli/RedFrame.bmp,2,Shape,None,3,1,1.0,75.29844665527344,75.29844665527344,0.0,79.28899383544922,79.28899383544922,0.0,78.31140899658203,78.31140899658203,0.0,1.0,1.0,0.0,'2',0.6399248242378235,0.6399248242378235,0.0,15.0
Shape,stimuli/circle.bmp,stimuli/circle.bmp,stimuli/vertical.bmp,stimuli/EmptyFrame.bmp,stimuli/RedFrame.bmp,1,Shape,None,3,1,1.0,79.30899047851562,79.30899047851562,0.0,83.30219268798828,83.30219268798828,0.0,82.318359375,82.318359375,0.0,1.0,1.0,0.0,'1',0.5389224886894226,0.5389224886894226,0.0,16.0
Shape,stimuli/circle.bmp,stimuli/circle.bmp,stimuli/horizontal.bmp,stimuli/EmptyFrame.bmp,stimuli/RedFrame.bmp,1,Shape,None,3,1,1.0,83.32555389404297,83.32555389404297,0.0,87.31657409667969,87.31657409667969,0.0,86.33576965332031,86.33576965332031,0.0,1.0,1.0,0.0,'1',0.6373738050460815,0.6373738050460815,0.0,17.0
Shape,stimuli/vertical.bmp,stimuli/circle.bmp,stimuli/vertical.bmp,stimuli/EmptyFrame.bmp,stimuli/RedFrame.bmp,2,Shape,None,3,1,1.0,87.34329223632812,87.34329223632812,0.0,91.33354949951172,91.33354949951172,0.0,90.35926818847656,90.35926818847656,0.0,1.0,1.0,0.0,'2',0.8309950232505798,0.8309950232505798,0.0,18.0
Shape,stimuli/circle.bmp,stimuli/vertical.bmp,stimuli/circle.bmp,stimuli/EmptyFrame.bmp,stimuli/RedFrame.bmp,2,Shape,None,3,1,1.0,91.3595962524414,91.3595962524414,0.0,95.34867858886719,95.34867858886719,0.0,94.36000061035156,94.36000061035156,0.0,1.0,1.0,0.0,'2',0.9299547076225281,0.9299547076225281,0.0,19.0
Shape,stimuli/vertical.bmp,stimuli/horizontal.bmp,stimuli/vertical.bmp,stimuli/EmptyFrame.bmp,stimuli/RedFrame.bmp,2,Shape,None,3,1,1.0,95.37725830078125,95.37725830078125,0.0,99.36772155761719,99.36772155761719,0.0,98.37818908691406,98.37818908691406,0.0,1.0,1.0,0.0,'2',0.9116302728652954,0.9116302728652954,0.0,20.0
Shape,stimuli/vertical.bmp,stimuli/vertical.bmp,stimuli/circle.bmp,stimuli/EmptyFrame.bmp,stimuli/RedFrame.bmp,1,Shape,None,3,1,1.0,99.39279174804688,99.39279174804688,0.0,103.38912200927734,103.38912200927734,0.0,102.39330291748047,102.39330291748047,0.0,1.0,1.0,0.0,'1',0.7149025201797485,0.7149025201797485,0.0,21.0
MatchFaces,stimuli/MatchFaces.bmp,stimuli/EmptyFace.bmp,stimuli/EmptyFace.bmp,stimuli/EmptyFrame.bmp,stimuli/EmptyFrame.bmp,Null,None,None,3,1,1.0,103.59278869628906,103.59278869628906,0.0,107.39624786376953,107.39624786376953,0.0,106.39674377441406,106.39674377441406,0.0,0.0,0.0,0.0,,,,,22.0
Neutral,stimuli/20M_NE_C.BMP,stimuli/21M_NE_C.BMP,stimuli/20M_NE_C.BMP,stimuli/EmptyFrame.bmp,stimuli/RedFrame.bmp,2,Neutral,Male,3,1,1.0,107.50579833984375,107.50579833984375,0.0,111.40934753417969,111.40934753417969,0.0,110.42473602294922,110.42473602294922,0.0,1.0,1.0,0.0,'2',1.1393238306045532,1.1393238306045532,0.0,23.0
Neutral,stimuli/01F_NE_C.bmp,stimuli/01F_NE_C.bmp,stimuli/02F_NE_C.bmp,stimuli/EmptyFrame.bmp,stimuli/RedFrame.bmp,1,Neutral,Female,3,1,1.0,111.44060516357422,111.44060516357422,0.0,115.42179870605469,115.42179870605469,0.0,114.4380874633789,114.4380874633789,0.0,1.0,1.0,0.0,'1',0.7069969773292542,0.7069969773292542,0.0,24.0
Neutral,stimuli/22M_NE_C.BMP,stimuli/23M_NE_C.BMP,stimuli/22M_NE_C.BMP,stimuli/EmptyFrame.bmp,stimuli/RedFrame.bmp,2,Neutral,Male,3,1,1.0,115.45121002197266,115.45121002197266,0.0,119.43799591064453,119.43799591064453,0.0,118.4454116821289,118.4454116821289,0.0,1.0,1.0,0.0,'2',0.6476905941963196,0.6476905941963196,0.0,25.0
Neutral,stimuli/24M_NE_C.BMP,stimuli/24M_NE_C.BMP,stimuli/25M_NE_C.BMP,stimuli/EmptyFrame.bmp,stimuli/RedFrame.bmp,1,Neutral,Male,3,1,1.0,119.46837615966797,119.46837615966797,0.0,123.45712280273438,123.45712280273438,0.0,122.47013854980469,122.47013854980469,0.0,1.0,1.0,0.0,'1',0.8349249958992004,0.8349249958992004,0.0,26.0
Neutral,stimuli/03F_NE_C.bmp,stimuli/05F_NE_C.bmp,stimuli/03F_NE_C.bmp,stimuli/EmptyFrame.bmp,stimuli/RedFrame.bmp,2,Neutral,Female,3,1,1.0,123.48648834228516,123.48648834228516,0.0,127.4757080078125,127.4757080078125,0.0,126.50003814697266,126.50003814697266,0.0,1.0,1.0,0.0,'2',0.7211294770240784,0.7211294770240784,0.0,27.0
Neutral,stimuli/26M_NE_C.BMP,stimuli/26M_NE_C.BMP,stimuli/27M_NE_C.BMP,stimuli/EmptyFrame.bmp,stimuli/RedFrame.bmp,1,Neutral,Male,3,1,1.0,127.513427734375,127.513427734375,0.0,131.49996948242188,131.49996948242188,0.0,130.53102111816406,130.53102111816406,0.0,1.0,1.0,0.0,'1',0.7169203162193298,0.7169203162193298,0.0,28.0
Neutral,stimuli/06F_NE_C.bmp,stimuli/07F_NE_C.BMP,stimuli/06F_NE_C.bmp,stimuli/EmptyFrame.bmp,stimuli/RedFrame.bmp,2,Neutral,Female,3,1,1.0,131.53184509277344,131.53184509277344,0.0,135.51963806152344,135.51963806152344,0.0,134.5385284423828,134.5385284423828,0.0,1.0,1.0,0.0,'2',0.8830831050872803,0.8830831050872803,0.0,29.0
Neutral,stimuli/08F_NE_C.BMP,stimuli/08F_NE_C.BMP,stimuli/09F_NE_C.BMP,stimuli/EmptyFrame.bmp,stimuli/RedFrame.bmp,1,Neutral,Female,3,1,1.0,135.55755615234375,135.55755615234375,0.0,139.5362548828125,139.5362548828125,0.0,138.5525665283203,138.5525665283203,0.0,1.0,1.0,0.0,'1',0.6928833723068237,0.6928833723068237,0.0,30.0
Neutral,stimuli/28M_NE_C.BMP,stimuli/29M_NE_C.BMP,stimuli/28M_NE_C.BMP,stimuli/EmptyFrame.bmp,stimuli/RedFrame.bmp,2,Neutral,Male,3,1,1.0,139.56301879882812,139.56301879882812,0.0,143.55923461914062,143.55923461914062,0.0,142.56521606445312,142.56521606445312,0.0,1.0,1.0,0.0,'2',0.5877835154533386,0.5877835154533386,0.0,31.0
Neutral,stimuli/10F_NE_C.BMP,stimuli/10F_NE_C.BMP,stimuli/06F_NE_C.bmp,stimuli/EmptyFrame.bmp,stimuli/RedFrame.bmp,1,Neutral,Female,3,1,1.0,143.5853729248047,143.5853729248047,0.0,147.5894012451172,147.5894012451172,0.0,146.60223388671875,146.60223388671875,0.0,1.0,1.0,0.0,'1',0.5653535723686218,0.5653535723686218,0.0,32.0
MatchFaces,stimuli/MatchFaces.bmp,stimuli/EmptyFace.bmp,stimuli/EmptyFace.bmp,stimuli/EmptyFrame.bmp,stimuli/EmptyFrame.bmp,Null,None,None,3,1,1.0,147.73373413085938,147.73373413085938,0.0,151.59555053710938,151.59555053710938,0.0,150.6061248779297,150.6061248779297,0.0,0.0,0.0,0.0,,,,,33.0
Fear,stimuli/07F_FE_O.BMP,stimuli/07F_FE_O.BMP,stimuli/14F_FE_O.BMP,stimuli/EmptyFrame.bmp,stimuli/RedFrame.bmp,1,Fear,Female,3,1,1.0,151.6502227783203,151.6502227783203,0.0,155.60984802246094,155.60984802246094,0.0,154.6356201171875,154.6356201171875,0.0,1.0,1.0,0.0,'1',0.7621073722839355,0.7621073722839355,0.0,34.0
Fear,stimuli/25M_FE_O.BMP,stimuli/29M_FE_O.BMP,stimuli/25M_FE_O.BMP,stimuli/EmptyFrame.bmp,stimuli/RedFrame.bmp,2,Fear,Male,3,1,1.0,155.63748168945312,155.63748168945312,0.0,159.62823486328125,159.62823486328125,0.0,158.64459228515625,158.64459228515625,0.0,1.0,1.0,0.0,'2',0.6699506044387817,0.6699506044387817,0.0,35.0
Fear,stimuli/26M_FE_O.BMP,stimuli/26M_FE_O.BMP,stimuli/28M_FE_O.BMP,stimuli/EmptyFrame.bmp,stimuli/RedFrame.bmp,1,Fear,Male,3,1,1.0,159.65863037109375,159.65863037109375,0.0,163.65020751953125,163.65020751953125,0.0,162.65907287597656,162.65907287597656,0.0,1.0,1.0,0.0,'1',0.8845131993293762,0.8845131993293762,0.0,36.0
Fear,stimuli/08F_FE_O.BMP,stimuli/13F_FE_O.BMP,stimuli/08F_FE_O.BMP,stimuli/EmptyFrame.bmp,stimuli/RedFrame.bmp,2,Fear,Female,3,1,1.0,163.6818084716797,163.6818084716797,0.0,167.6621856689453,167.6621856689453,0.0,166.6757049560547,166.6757049560547,0.0,1.0,1.0,0.0,'2',0.6029294729232788,0.6029294729232788,0.0,37.0
Fear,stimuli/09F_FE_O.BMP,stimuli/09F_FE_O.BMP,stimuli/12F_FE_O.BMP,stimuli/EmptyFrame.bmp,stimuli/RedFrame.bmp,1,Fear,Female,3,1,1.0,167.6947021484375,167.6947021484375,0.0,171.69178771972656,171.69178771972656,0.0,170.70245361328125,170.70245361328125,0.0,1.0,1.0,0.0,'1',0.5202733874320984,0.5202733874320984,0.0,38.0
Fear,stimuli/27M_FE_O.BMP,stimuli/26M_FE_O.BMP,stimuli/27M_FE_O.BMP,stimuli/EmptyFrame.bmp,stimuli/RedFrame.bmp,2,Fear,Male,3,1,1.0,171.71690368652344,171.71690368652344,0.0,175.71218872070312,175.71218872070312,0.0,174.7268524169922,174.7268524169922,0.0,1.0,1.0,0.0,'2',0.6396012902259827,0.6396012902259827,0.0,39.0
Fear,stimuli/28M_FE_O.BMP,stimuli/28M_FE_O.BMP,stimuli/25M_FE_O.BMP,stimuli/EmptyFrame.bmp,stimuli/RedFrame.bmp,1,Fear,Male,3,1,1.0,175.7388153076172,175.7388153076172,0.0,179.7275390625,179.7275390625,0.0,178.74916076660156,178.74916076660156,0.0,1.0,1.0,0.0,'1',0.808586597442627,0.808586597442627,0.0,40.0
Fear,stimuli/10F_FE_O.BMP,stimuli/11F_FE_O.BMP,stimuli/10F_FE_O.BMP,stimuli/EmptyFrame.bmp,stimuli/RedFrame.bmp,2,Fear,Female,3,1,1.0,179.7568359375,179.7568359375,0.0,183.75242614746094,183.75242614746094,0.0,182.7568359375,182.7568359375,0.0,1.0,1.0,0.0,'2',0.479539692401886,0.479539692401886,0.0,41.0
Fear,stimuli/29M_FE_O.BMP,stimuli/29M_FE_O.BMP,stimuli/24M_FE_O.BMP,stimuli/EmptyFrame.bmp,stimuli/RedFrame.bmp,1,Fear,Male,3,1,1.0,183.7811737060547,183.7811737060547,0.0,187.78048706054688,187.78048706054688,0.0,186.78443908691406,186.78443908691406,0.0,1.0,1.0,0.0,'1',0.8583539128303528,0.8583539128303528,0.0,42.0
Fear,stimuli/11F_FE_O.BMP,stimuli/10F_FE_O.BMP,stimuli/11F_FE_O.BMP,stimuli/EmptyFrame.bmp,stimuli/RedFrame.bmp,2,Fear,Female,3,1,1.0,187.80393981933594,187.80393981933594,0.0,191.7993927001953,191.7993927001953,0.0,190.81265258789062,190.81265258789062,0.0,1.0,1.0,0.0,'2',0.5839412808418274,0.5839412808418274,0.0,43.0
MatchFaces,stimuli/MatchFaces.bmp,stimuli/EmptyFace.bmp,stimuli/EmptyFace.bmp,stimuli/EmptyFrame.bmp,stimuli/EmptyFrame.bmp,Null,None,None,3,1,1.0,191.94265747070312,191.94265747070312,0.0,195.80551147460938,195.80551147460938,0.0,194.8120574951172,194.8120574951172,0.0,0.0,0.0,0.0,,,,,44.0
Happy,stimuli/19F_HA_O.BMP,stimuli/19F_HA_O.BMP,stimuli/18F_HA_O.BMP,stimuli/EmptyFrame.bmp,stimuli/RedFrame.bmp,1,Happy,Female,3,1,1.0,195.85667419433594,195.85667419433594,0.0,199.82504272460938,199.82504272460938,0.0,198.84274291992188,198.84274291992188,0.0,1.0,1.0,0.0,'1',0.5755553245544434,0.5755553245544434,0.0,45.0
Happy,stimuli/17F_HA_O.BMP,stimuli/16F_HA_O.BMP,stimuli/17F_HA_O.BMP,stimuli/EmptyFrame.bmp,stimuli/RedFrame.bmp,2,Happy,Female,3,1,1.0,199.8556671142578,199.8556671142578,0.0,203.84095764160156,203.84095764160156,0.0,202.8506622314453,202.8506622314453,0.0,1.0,1.0,0.0,'2',0.8973568081855774,0.8973568081855774,0.0,46.0
Happy,stimuli/43M_HA_O.BMP,stimuli/42M_HA_O.BMP,stimuli/43M_HA_O.BMP,stimuli/EmptyFrame.bmp,stimuli/RedFrame.bmp,2,Happy,Male,3,1,1.0,203.865478515625,203.865478515625,0.0,207.8582763671875,207.8582763671875,0.0,206.87091064453125,206.87091064453125,0.0,1.0,1.0,0.0,'2',0.8277391791343689,0.8277391791343689,0.0,47.0
Happy,stimuli/41M_HA_O.BMP,stimuli/41M_HA_O.BMP,stimuli/40M_HA_O.BMP,stimuli/EmptyFrame.bmp,stimuli/RedFrame.bmp,1,Happy,Male,3,1,1.0,207.88804626464844,207.88804626464844,0.0,211.87025451660156,211.87025451660156,0.0,210.89300537109375,210.89300537109375,0.0,1.0,1.0,0.0,'1',0.5246893167495728,0.5246893167495728,0.0,48.0
Happy,stimuli/15F_HA_O.BMP,stimuli/15F_HA_O.BMP,stimuli/14F_HA_O.BMP,stimuli/EmptyFrame.bmp,stimuli/RedFrame.bmp,1,Happy,Female,3,1,1.0,211.89894104003906,211.89894104003906,0.0,215.8829345703125,215.8829345703125,0.0,214.8977813720703,214.8977813720703,0.0,1.0,1.0,0.0,'1',0.6395723819732666,0.6395723819732666,0.0,49.0
Happy,stimuli/13F_HA_O.BMP,stimuli/13F_HA_O.BMP,stimuli/12F_HA_O.BMP,stimuli/EmptyFrame.bmp,stimuli/RedFrame.bmp,1,Happy,Female,3,1,1.0,215.91244506835938,215.91244506835938,0.0,219.89735412597656,219.89735412597656,0.0,218.91726684570312,218.91726684570312,0.0,1.0,1.0,0.0,'1',0.7119719982147217,0.7119719982147217,0.0,50.0
Happy,stimuli/39M_HA_O.BMP,stimuli/38M_HA_O.BMP,stimuli/39M_HA_O.BMP,stimuli/EmptyFrame.bmp,stimuli/RedFrame.bmp,2,Happy,Male,3,1,1.0,219.92559814453125,219.92559814453125,0.0,223.91201782226562,223.91201782226562,0.0,222.93609619140625,222.93609619140625,0.0,1.0,1.0,0.0,'2',0.9402368068695068,0.9402368068695068,0.0,51.0
Happy,stimuli/37M_HA_O.BMP,stimuli/37M_HA_O.BMP,stimuli/36M_HA_O.BMP,stimuli/EmptyFrame.bmp,stimuli/RedFrame.bmp,1,Happy,Male,3,1,1.0,223.94171142578125,223.94171142578125,0.0,227.92575073242188,227.92575073242188,0.0,226.9444122314453,226.9444122314453,0.0,1.0,1.0,0.0,'1',0.7018364071846008,0.7018364071846008,0.0,52.0
Happy,stimuli/35M_HA_O.BMP,stimuli/34M_HA_O.BMP,stimuli/35M_HA_O.BMP,stimuli/EmptyFrame.bmp,stimuli/RedFrame.bmp,2,Happy,Male,3,1,1.0,227.9562225341797,227.9562225341797,0.0,231.93484497070312,231.93484497070312,0.0,230.94427490234375,230.94427490234375,0.0,1.0,1.0,0.0,'2',0.6907318830490112,0.6907318830490112,0.0,53.0
Happy,stimuli/11F_HA_O.BMP,stimuli/10F_HA_O.BMP,stimuli/11F_HA_O.BMP,stimuli/EmptyFrame.bmp,stimuli/RedFrame.bmp,2,Happy,Female,3,1,1.0,231.9605712890625,231.9605712890625,0.0,235.9483184814453,235.9483184814453,0.0,234.95870971679688,234.95870971679688,0.0,1.0,1.0,0.0,'2',0.607204020023346,0.607204020023346,0.0,54.0
Match Shape,stimuli/MatchShapes.bmp,stimuli/EmptyFace.bmp,stimuli/EmptyFace.bmp,stimuli/EmptyFrame.bmp,stimuli/EmptyFrame.bmp,Null,None,None,3,1,1.0,235.973388671875,235.973388671875,0.0,239.95343017578125,239.95343017578125,0.0,238.9605255126953,238.9605255126953,0.0,0.0,0.0,0.0,,,,,55.0
Shape,stimuli/circle.bmp,stimuli/vertical.bmp,stimuli/circle.bmp,stimuli/EmptyFrame.bmp,stimuli/RedFrame.bmp,2,Shape,None,3,1,1.0,239.98484802246094,239.98484802246094,0.0,243.97018432617188,243.97018432617188,0.0,242.98284912109375,242.98284912109375,0.0,1.0,1.0,0.0,'2',0.545552670955658,0.545552670955658,0.0,56.0
Shape,stimuli/horizontal.bmp,stimuli/circle.bmp,stimuli/horizontal.bmp,stimuli/EmptyFrame.bmp,stimuli/RedFrame.bmp,2,Shape,None,3,1,1.0,243.99497985839844,243.99497985839844,0.0,247.98660278320312,247.98660278320312,0.0,247.00631713867188,247.00631713867188,0.0,1.0,1.0,0.0,'2',0.8818598985671997,0.8818598985671997,0.0,57.0
Shape,stimuli/vertical.bmp,stimuli/vertical.bmp,stimuli/horizontal.bmp,stimuli/EmptyFrame.bmp,stimuli/RedFrame.bmp,1,Shape,None,3,1,1.0,248.00669860839844,248.00669860839844,0.0,252.00547790527344,252.00547790527344,0.0,251.0166473388672,251.0166473388672,0.0,1.0,1.0,0.0,'1',0.7712783813476562,0.7712783813476562,0.0,58.0
Shape,stimuli/horizontal.bmp,stimuli/circle.bmp,stimuli/horizontal.bmp,stimuli/EmptyFrame.bmp,stimuli/RedFrame.bmp,2,Shape,None,3,1,1.0,252.02638244628906,252.02638244628906,0.0,256.0159606933594,256.0159606933594,0.0,255.0380859375,255.0380859375,0.0,1.0,1.0,0.0,'2',0.47889429330825806,0.47889429330825806,0.0,59.0
Shape,stimuli/horizontal.bmp,stimuli/horizontal.bmp,stimuli/vertical.bmp,stimuli/EmptyFrame.bmp,stimuli/RedFrame.bmp,1,Shape,None,3,1,1.0,256.0397644042969,256.0397644042969,0.0,260.037353515625,260.037353515625,0.0,259.0478820800781,259.0478820800781,0.0,1.0,1.0,0.0,'1',0.684206485748291,0.684206485748291,0.0,60.0
Shape,stimuli/vertical.bmp,stimuli/vertical.bmp,stimuli/circle.bmp,stimuli/EmptyFrame.bmp,stimuli/RedFrame.bmp,1,Shape,None,3,1,1.0,260.05902099609375,260.05902099609375,0.0,264.0489501953125,264.0489501953125,0.0,263.0658874511719,263.0658874511719,0.0,1.0,1.0,0.0,'1',0.6342102885246277,0.6342102885246277,0.0,61.0
Shape,stimuli/circle.bmp,stimuli/horizontal.bmp,stimuli/circle.bmp,stimuli/EmptyFrame.bmp,stimuli/RedFrame.bmp,2,Shape,None,3,1,1.0,264.0718688964844,264.0718688964844,0.0,268.0620422363281,268.0620422363281,0.0,267.0787658691406,267.0787658691406,0.0,1.0,1.0,0.0,'2',0.6486703157424927,0.6486703157424927,0.0,62.0
Shape,stimuli/circle.bmp,stimuli/vertical.bmp,stimuli/circle.bmp,stimuli/EmptyFrame.bmp,stimuli/RedFrame.bmp,2,Shape,None,3,1,1.0,268.0887756347656,268.0887756347656,0.0,272.0836181640625,272.0836181640625,0.0,271.089111328125,271.089111328125,0.0,1.0,1.0,0.0,'2',0.5855998992919922,0.5855998992919922,0.0,63.0
Shape,stimuli/vertical.bmp,stimuli/vertical.bmp,stimuli/horizontal.bmp,stimuli/EmptyFrame.bmp,stimuli/RedFrame.bmp,1,Shape,None,3,1,1.0,272.1094665527344,272.1094665527344,0.0,276.1016540527344,276.1016540527344,0.0,275.10821533203125,275.10821533203125,0.0,1.0,1.0,0.0,'1',0.780052900314331,0.780052900314331,0.0,64.0
Shape,stimuli/horizontal.bmp,stimuli/horizontal.bmp,stimuli/circle.bmp,stimuli/EmptyFrame.bmp,stimuli/RedFrame.bmp,1,Shape,None,3,1,1.0,276.1229553222656,276.1229553222656,0.0,280.1199645996094,280.1199645996094,0.0,279.1220703125,279.1220703125,0.0,1.0,1.0,0.0,'1',0.6537681818008423,0.6537681818008423,0.0,65.0
MatchFaces,stimuli/MatchFaces.bmp,stimuli/EmptyFace.bmp,stimuli/EmptyFace.bmp,stimuli/EmptyFrame.bmp,stimuli/EmptyFrame.bmp,Null,None,None,3,1,1.0,280.2663269042969,280.2663269042969,0.0,284.1261901855469,284.1261901855469,0.0,283.13201904296875,283.13201904296875,0.0,0.0,0.0,0.0,,,,,66.0
Anger,stimuli/42M_AN_O.BMP,stimuli/42M_AN_O.BMP,stimuli/43M_AN_O.BMP,stimuli/EmptyFrame.bmp,stimuli/RedFrame.bmp,1,Anger,Male,3,1,1.0,284.1794128417969,284.1794128417969,0.0,288.1394348144531,288.1394348144531,0.0,287.15557861328125,287.15557861328125,0.0,1.0,1.0,0.0,'1',0.5786733031272888,0.5786733031272888,0.0,67.0
Anger,stimuli/07F_AN_O.BMP,stimuli/07F_AN_O.BMP,stimuli/14F_AN_O.BMP,stimuli/EmptyFrame.bmp,stimuli/RedFrame.bmp,1,Anger,Female,3,1,1.0,288.167724609375,288.167724609375,0.0,292.1618957519531,292.1618957519531,0.0,291.17364501953125,291.17364501953125,0.0,1.0,1.0,0.0,'1',0.5589560270309448,0.5589560270309448,0.0,68.0
Anger,stimuli/40M_AN_O.BMP,stimuli/41M_AN_O.BMP,stimuli/40M_AN_O.BMP,stimuli/EmptyFrame.bmp,stimuli/RedFrame.bmp,2,Anger,Male,3,1,1.0,292.19305419921875,292.19305419921875,0.0,296.1763916015625,296.1763916015625,0.0,295.1916809082031,295.1916809082031,0.0,1.0,1.0,0.0,'2',0.8413512110710144,0.8413512110710144,0.0,69.0
Anger,stimuli/38M_AN_O.BMP,stimuli/39M_AN_O.BMP,stimuli/38M_AN_O.BMP,stimuli/EmptyFrame.bmp,stimuli/RedFrame.bmp,2,Anger,Male,3,1,1.0,296.2044677734375,296.2044677734375,0.0,300.1923522949219,300.1923522949219,0.0,299.20721435546875,299.20721435546875,0.0,1.0,1.0,0.0,'2',0.904826819896698,0.904826819896698,0.0,70.0
Anger,stimuli/08F_AN_O.BMP,stimuli/08F_AN_O.BMP,stimuli/13F_AN_O.BMP,stimuli/EmptyFrame.bmp,stimuli/RedFrame.bmp,1,Anger,Female,3,1,1.0,300.22064208984375,300.22064208984375,0.0,304.2113342285156,304.2113342285156,0.0,303.2187194824219,303.2187194824219,0.0,1.0,1.0,0.0,'1',0.5359609127044678,0.5359609127044678,0.0,71.0
Anger,stimuli/36M_AN_O.BMP,stimuli/37M_AN_O.BMP,stimuli/36M_AN_O.BMP,stimuli/EmptyFrame.bmp,stimuli/RedFrame.bmp,2,Anger,Male,3,1,1.0,304.2408752441406,304.2408752441406,0.0,308.2293701171875,308.2293701171875,0.0,307.239990234375,307.239990234375,0.0,1.0,1.0,0.0,'2',0.7310159802436829,0.7310159802436829,0.0,72.0
Anger,stimuli/09F_AN_O.BMP,stimuli/12F_AN_O.BMP,stimuli/09F_AN_O.BMP,stimuli/EmptyFrame.bmp,stimuli/RedFrame.bmp,2,Anger,Female,3,1,1.0,308.25604248046875,308.25604248046875,0.0,312.2469177246094,312.2469177246094,0.0,311.25860595703125,311.25860595703125,0.0,1.0,1.0,0.0,'2',0.6078746914863586,0.6078746914863586,0.0,73.0
Anger,stimuli/34M_AN_O.BMP,stimuli/35M_AN_O.BMP,stimuli/34M_AN_O.BMP,stimuli/EmptyFrame.bmp,stimuli/RedFrame.bmp,2,Anger,Male,3,1,1.0,312.2755126953125,312.2755126953125,0.0,316.2699279785156,316.2699279785156,0.0,315.2784118652344,315.2784118652344,0.0,1.0,1.0,0.0,'2',0.6978440880775452,0.6978440880775452,0.0,74.0
Anger,stimuli/10F_AN_O.BMP,stimuli/10F_AN_O.BMP,stimuli/11F_AN_O.BMP,stimuli/EmptyFrame.bmp,stimuli/RedFrame.bmp,1,Anger,Female,3,1,1.0,316.3023681640625,316.3023681640625,0.0,320.28173828125,320.28173828125,0.0,319.2958984375,319.2958984375,0.0,1.0,1.0,0.0,'1',0.6534814238548279,0.6534814238548279,0.0,75.0
Anger,stimuli/12F_AN_O.BMP,stimuli/12F_AN_O.BMP,stimuli/13F_AN_O.BMP,stimuli/EmptyFrame.bmp,stimuli/RedFrame.bmp,1,Anger,Female,3,1,1.0,320.304931640625,320.304931640625,0.0,324.296630859375,324.296630859375,0.0,323.3092956542969,323.3092956542969,0.0,1.0,1.0,0.0,'1',1.0202041864395142,1.0202041864395142,0.0,76.0
MatchFaces,stimuli/MatchFaces.bmp,stimuli/EmptyFace.bmp,stimuli/EmptyFace.bmp,stimuli/EmptyFrame.bmp,stimuli/EmptyFrame.bmp,Null,None,None,3,1,1.0,324.4280090332031,324.4280090332031,0.0,328.3039245605469,328.3039245605469,0.0,327.30340576171875,327.30340576171875,0.0,0.0,0.0,0.0,,,,,77.0
Happy,stimuli/20M_HA_O.BMP,stimuli/21M_HA_O.BMP,stimuli/20M_HA_O.BMP,stimuli/EmptyFrame.bmp,stimuli/RedFrame.bmp,2,Happy,Male,3,1,1.0,328.3530578613281,328.3530578613281,0.0,332.3185729980469,332.3185729980469,0.0,331.3409729003906,331.3409729003906,0.0,1.0,1.0,0.0,'2',0.9590283036231995,0.9590283036231995,0.0,78.0
Happy,stimuli/01F_HA_O.bmp,stimuli/01F_HA_O.bmp,stimuli/02F_HA_O.bmp,stimuli/EmptyFrame.bmp,stimuli/RedFrame.bmp,1,Happy,Female,3,1,1.0,332.34912109375,332.34912109375,0.0,336.33087158203125,336.33087158203125,0.0,335.3551330566406,335.3551330566406,0.0,1.0,1.0,0.0,'1',0.6890109181404114,0.6890109181404114,0.0,79.0
Happy,stimuli/22M_HA_O.BMP,stimuli/23M_HA_O.BMP,stimuli/22M_HA_O.BMP,stimuli/EmptyFrame.bmp,stimuli/RedFrame.bmp,2,Happy,Male,3,1,1.0,336.3608093261719,336.3608093261719,0.0,340.354248046875,340.354248046875,0.0,339.3675231933594,339.3675231933594,0.0,1.0,1.0,0.0,'2',0.6761519908905029,0.6761519908905029,0.0,80.0
Happy,stimuli/24M_HA_O.BMP,stimuli/24M_HA_O.BMP,stimuli/25M_HA_O.BMP,stimuli/EmptyFrame.bmp,stimuli/RedFrame.bmp,1,Happy,Male,3,1,1.0,340.3855285644531,340.3855285644531,0.0,344.37884521484375,344.37884521484375,0.0,343.39337158203125,343.39337158203125,0.0,1.0,1.0,0.0,'1',1.0876187086105347,1.0876187086105347,0.0,81.0
Happy,stimuli/03F_HA_O.bmp,stimuli/05F_HA_O.bmp,stimuli/03F_HA_O.bmp,stimuli/EmptyFrame.bmp,stimuli/RedFrame.bmp,2,Happy,Female,3,1,1.0,344.4072570800781,344.4072570800781,0.0,348.3981628417969,348.3981628417969,0.0,347.40625,347.40625,0.0,1.0,1.0,0.0,'2',0.569596529006958,0.569596529006958,0.0,82.0
Happy,stimuli/26M_HA_O.BMP,stimuli/26M_HA_O.BMP,stimuli/27M_HA_O.BMP,stimuli/EmptyFrame.bmp,stimuli/RedFrame.bmp,1,Happy,Male,3,1,1.0,348.425048828125,348.425048828125,0.0,352.41192626953125,352.41192626953125,0.0,351.42242431640625,351.42242431640625,0.0,1.0,1.0,0.0,'1',0.7874919772148132,0.7874919772148132,0.0,83.0
Happy,stimuli/06F_HA_O.bmp,stimuli/07F_HA_O.BMP,stimuli/06F_HA_O.bmp,stimuli/EmptyFrame.bmp,stimuli/RedFrame.bmp,2,Happy,Female,3,1,1.0,352.4393005371094,352.4393005371094,0.0,356.42999267578125,356.42999267578125,0.0,355.4362487792969,355.4362487792969,0.0,1.0,1.0,0.0,'2',0.7765809297561646,0.7765809297561646,0.0,84.0
Happy,stimuli/08F_HA_O.BMP,stimuli/08F_HA_O.BMP,stimuli/09F_HA_O.BMP,stimuli/EmptyFrame.bmp,stimuli/RedFrame.bmp,1,Happy,Female,3,1,1.0,356.458251953125,356.458251953125,0.0,360.44073486328125,360.44073486328125,0.0,359.4522705078125,359.4522705078125,0.0,1.0,1.0,0.0,'1',0.8385801911354065,0.8385801911354065,0.0,85.0
Happy,stimuli/28M_HA_O.BMP,stimuli/29M_HA_O.BMP,stimuli/28M_HA_O.BMP,stimuli/EmptyFrame.bmp,stimuli/RedFrame.bmp,2,Happy,Male,3,1,1.0,360.46759033203125,360.46759033203125,0.0,364.4622497558594,364.4622497558594,0.0,363.4738464355469,363.4738464355469,0.0,1.0,1.0,0.0,'2',0.555443525314331,0.555443525314331,0.0,86.0
Happy,stimuli/10F_HA_O.BMP,stimuli/10F_HA_O.BMP,stimuli/06F_HA_O.bmp,stimuli/EmptyFrame.bmp,stimuli/RedFrame.bmp,1,Happy,Female,3,1,1.0,364.4877014160156,364.4877014160156,0.0,368.4763488769531,368.4763488769531,0.0,367.50787353515625,367.50787353515625,0.0,1.0,1.0,0.0,'1',0.6686698794364929,0.6686698794364929,0.0,87.0
MatchFaces,stimuli/MatchFaces.bmp,stimuli/EmptyFace.bmp,stimuli/EmptyFace.bmp,stimuli/EmptyFrame.bmp,stimuli/EmptyFrame.bmp,Null,None,None,3,1,1.0,368.6270751953125,368.6270751953125,0.0,372.4881896972656,372.4881896972656,0.0,371.4934997558594,371.4934997558594,0.0,0.0,0.0,0.0,,,,,88.0
Neutral,stimuli/07F_NE_C.BMP,stimuli/07F_NE_C.BMP,stimuli/14F_NE_C.BMP,stimuli/EmptyFrame.bmp,stimuli/RedFrame.bmp,1,Neutral,Female,3,1,1.0,372.5454406738281,372.5454406738281,0.0,376.50689697265625,376.50689697265625,0.0,375.5101318359375,375.5101318359375,0.0,1.0,1.0,0.0,'1',0.6398429274559021,0.6398429274559021,0.0,89.0
Neutral,stimuli/25M_NE_C.BMP,stimuli/29M_NE_C.BMP,stimuli/25M_NE_C.BMP,stimuli/EmptyFrame.bmp,stimuli/RedFrame.bmp,2,Neutral,Male,3,1,1.0,376.5334777832031,376.5334777832031,0.0,380.5257568359375,380.5257568359375,0.0,379.53521728515625,379.53521728515625,0.0,1.0,1.0,0.0,'2',0.5944328904151917,0.5944328904151917,0.0,90.0
Neutral,stimuli/26M_NE_C.BMP,stimuli/26M_NE_C.BMP,stimuli/28M_NE_C.BMP,stimuli/EmptyFrame.bmp,stimuli/RedFrame.bmp,1,Neutral,Male,3,1,1.0,380.5498046875,380.5498046875,0.0,384.5469055175781,384.5469055175781,0.0,383.549072265625,383.549072265625,0.0,1.0,1.0,0.0,'1',0.5816320776939392,0.5816320776939392,0.0,91.0
Neutral,stimuli/08F_NE_C.BMP,stimuli/13F_NE_C.BMP,stimuli/08F_NE_C.BMP,stimuli/EmptyFrame.bmp,stimuli/RedFrame.bmp,2,Neutral,Female,3,1,1.0,384.5750732421875,384.5750732421875,0.0,388.5633850097656,388.5633850097656,0.0,387.5738830566406,387.5738830566406,0.0,1.0,1.0,0.0,'2',0.7092065215110779,0.7092065215110779,0.0,92.0
Neutral,stimuli/09F_NE_C.BMP,stimuli/09F_NE_C.BMP,stimuli/12F_NE_C.BMP,stimuli/EmptyFrame.bmp,stimuli/RedFrame.bmp,1,Neutral,Female,3,1,1.0,388.5926818847656,388.5926818847656,0.0,392.58599853515625,392.58599853515625,0.0,391.58880615234375,391.58880615234375,0.0,1.0,1.0,0.0,'1',0.6304507255554199,0.6304507255554199,0.0,93.0
Neutral,stimuli/27M_NE_C.BMP,stimuli/26M_NE_C.BMP,stimuli/27M_NE_C.BMP,stimuli/EmptyFrame.bmp,stimuli/RedFrame.bmp,2,Neutral,Male,3,1,1.0,392.60882568359375,392.60882568359375,0.0,396.6111145019531,396.6111145019531,0.0,395.62396240234375,395.62396240234375,0.0,1.0,1.0,0.0,'2',0.70057612657547,0.70057612657547,0.0,94.0
Neutral,stimuli/28M_NE_C.BMP,stimuli/28M_NE_C.BMP,stimuli/25M_NE_C.BMP,stimuli/EmptyFrame.bmp,stimuli/RedFrame.bmp,1,Neutral,Male,3,1,1.0,396.6366271972656,396.6366271972656,0.0,400.630615234375,400.630615234375,0.0,399.64825439453125,399.64825439453125,0.0,1.0,1.0,0.0,'1',0.7839406132698059,0.7839406132698059,0.0,95.0
Neutral,stimuli/10F_NE_C.BMP,stimuli/11F_NE_C.BMP,stimuli/10F_NE_C.BMP,stimuli/EmptyFrame.bmp,stimuli/RedFrame.bmp,2,Neutral,Female,3,1,1.0,400.6561279296875,400.6561279296875,0.0,404.64111328125,404.64111328125,0.0,403.66278076171875,403.66278076171875,0.0,1.0,1.0,0.0,'2',0.6854462027549744,0.6854462027549744,0.0,96.0
Neutral,stimuli/29M_NE_C.BMP,stimuli/29M_NE_C.BMP,stimuli/24M_NE_C.BMP,stimuli/EmptyFrame.bmp,stimuli/RedFrame.bmp,1,Neutral,Male,3,1,1.0,404.6654357910156,404.6654357910156,0.0,408.6594543457031,408.6594543457031,0.0,407.6732482910156,407.6732482910156,0.0,1.0,1.0,0.0,'1',0.6159672141075134,0.6159672141075134,0.0,97.0
Neutral,stimuli/11F_NE_C.BMP,stimuli/10F_NE_C.BMP,stimuli/11F_NE_C.BMP,stimuli/EmptyFrame.bmp,stimuli/RedFrame.bmp,2,Neutral,Female,3,1,1.0,408.6829833984375,408.6829833984375,0.0,412.6714782714844,412.6714782714844,0.0,411.6895751953125,411.6895751953125,0.0,1.0,1.0,0.0,'2',0.7238953113555908,0.7238953113555908,0.0,98.0
MatchFaces,stimuli/MatchFaces.bmp,stimuli/EmptyFace.bmp,stimuli/EmptyFace.bmp,stimuli/EmptyFrame.bmp,stimuli/EmptyFrame.bmp,Null,None,None,3,1,1.0,412.8046569824219,412.8046569824219,0.0,416.6782531738281,416.6782531738281,0.0,415.689208984375,415.689208984375,0.0,0.0,0.0,0.0,,,,,99.0
Fear,stimuli/23M_FE_O.BMP,stimuli/23M_FE_O.BMP,stimuli/24M_FE_O.BMP,stimuli/EmptyFrame.bmp,stimuli/RedFrame.bmp,1,Fear,Male,3,1,1.0,416.72955322265625,416.72955322265625,0.0,420.6893005371094,420.6893005371094,0.0,419.71044921875,419.71044921875,0.0,1.0,1.0,0.0,'1',0.5945931077003479,0.5945931077003479,0.0,100.0
Fear,stimuli/19F_FE_O.BMP,stimuli/18F_FE_O.BMP,stimuli/19F_FE_O.BMP,stimuli/EmptyFrame.bmp,stimuli/RedFrame.bmp,2,Fear,Female,3,1,1.0,420.7206726074219,420.7206726074219,0.0,424.7135009765625,424.7135009765625,0.0,423.7181091308594,423.7181091308594,0.0,1.0,1.0,0.0,'2',0.5218384861946106,0.5218384861946106,0.0,101.0
Fear,stimuli/17F_FE_O.BMP,stimuli/17F_FE_O.BMP,stimuli/16F_FE_O.BMP,stimuli/EmptyFrame.bmp,stimuli/RedFrame.bmp,1,Fear,Female,3,1,1.0,424.7420654296875,424.7420654296875,0.0,428.7262268066406,428.7262268066406,0.0,427.7420959472656,427.7420959472656,0.0,1.0,1.0,0.0,'1',0.639316976070404,0.639316976070404,0.0,102.0
Fear,stimuli/15F_FE_O.BMP,stimuli/18F_FE_O.BMP,stimuli/15F_FE_O.BMP,stimuli/EmptyFrame.bmp,stimuli/RedFrame.bmp,2,Fear,Female,3,1,1.0,428.752197265625,428.752197265625,0.0,432.7478332519531,432.7478332519531,0.0,431.752197265625,431.752197265625,0.0,1.0,1.0,0.0,'2',0.653791606426239,0.653791606426239,0.0,103.0
Fear,stimuli/21M_FE_O.BMP,stimuli/21M_FE_O.BMP,stimuli/22M_FE_O.BMP,stimuli/EmptyFrame.bmp,stimuli/RedFrame.bmp,1,Fear,Male,3,1,1.0,432.7763977050781,432.7763977050781,0.0,436.76483154296875,436.76483154296875,0.0,435.77911376953125,435.77911376953125,0.0,1.0,1.0,0.0,'1',0.7492460012435913,0.7492460012435913,0.0,104.0
Fear,stimuli/29M_FE_O.BMP,stimuli/30M_FE_O.BMP,stimuli/29M_FE_O.BMP,stimuli/EmptyFrame.bmp,stimuli/RedFrame.bmp,2,Fear,Male,3,1,1.0,436.7948303222656,436.7948303222656,0.0,440.78753662109375,440.78753662109375,0.0,439.7909240722656,439.7909240722656,0.0,1.0,1.0,0.0,'2',0.5857487916946411,0.5857487916946411,0.0,105.0
Fear,stimuli/31M_FE_O.BMP,stimuli/31M_FE_O.BMP,stimuli/38M_FE_O.BMP,stimuli/EmptyFrame.bmp,stimuli/RedFrame.bmp,1,Fear,Male,3,1,1.0,440.8172302246094,440.8172302246094,0.0,444.8045349121094,444.8045349121094,0.0,443.825439453125,443.825439453125,0.0,1.0,1.0,0.0,'1',0.5809639096260071,0.5809639096260071,0.0,106.0
Fear,stimuli/09F_FE_O.BMP,stimuli/07F_FE_O.BMP,stimuli/09F_FE_O.BMP,stimuli/EmptyFrame.bmp,stimuli/RedFrame.bmp,2,Fear,Female,3,1,1.0,444.8306579589844,444.8306579589844,0.0,448.8203125,448.8203125,0.0,447.83843994140625,447.83843994140625,0.0,1.0,1.0,0.0,'2',0.5817868709564209,0.5817868709564209,0.0,107.0
Fear,stimuli/11F_FE_O.BMP,stimuli/12F_FE_O.BMP,stimuli/11F_FE_O.BMP,stimuli/EmptyFrame.bmp,stimuli/RedFrame.bmp,2,Fear,Female,3,1,1.0,448.8450012207031,448.8450012207031,0.0,452.8374328613281,452.8374328613281,0.0,451.85430908203125,451.85430908203125,0.0,1.0,1.0,0.0,'2',0.6793912053108215,0.6793912053108215,0.0,108.0
Fear,stimuli/34M_FE_O.BMP,stimuli/34M_FE_O.BMP,stimuli/33M_FE_O.BMP,stimuli/EmptyFrame.bmp,stimuli/RedFrame.bmp,1,Fear,Male,3,1,1.0,452.8664855957031,452.8664855957031,0.0,456.8486633300781,456.8486633300781,0.0,455.8730773925781,455.8730773925781,0.0,1.0,1.0,0.0,'1',0.6573228240013123,0.6573228240013123,0.0,109.0

extraInfo
participant,sub028
session,002
date,2025_Aug_15_0907
expName,HaririTask_Ver1
psychopyVersion,3.0.1
frameRate,None
