TrialType,Top,Left,Right,EmptyFrame,SelectedFrame,Correct,Emotion,Gender,TrialLength,FixationLength,trials.thisRepN,trials.thisTrialN,trials.thisN,trials.thisIndex,key_resp_starttask.keys,key_resp_starttask.rt,GCBeginningFixationStartTime,GCBeginningFixationEndTime,key_resp_trial.keys,key_resp_trial.corr,GCFaceStartTime,GCPostFaceFixationStartTime,GCPostFaceFixationEndTime,key_resp_trial.rt,GCEndingFixationStartTime,GCEndingFixationEndTime,participant,session,date,expName,psychopyVersion,frameRate,
,,,,,,,,,,,,,,,5,99.58609540015459,,,,,,,,,,,sub010,001,2025_Jun_05_0914,HaririTask_Ver2,3.0.1,None,
MatchFaces,stimuli/MatchFaces.bmp,stimuli/EmptyFace.bmp,stimuli/EmptyFace.bmp,stimuli/EmptyFrame.bmp,stimuli/EmptyFrame.bmp,Null,None,None,3,1,0,0,0,0,,,2.300366759300232e-06,15.004875500220805,None,0,15.18070870032534,18.058222300373018,19.046041100285947,,,,sub010,001,2025_Jun_05_0914,HaririTask_Ver2,3.0.1,None,
Fear,stimuli/23M_FE_O.BMP,stimuli/23M_FE_O.BMP,stimuli/24M_FE_O.BMP,stimuli/EmptyFrame.bmp,stimuli/RedFrame.bmp,1,Fear,Male,3,1,0,1,1,1,,,,,1,1,19.17079559992999,22.083136500325054,23.06438530003652,1.0758965997956693,,,sub010,001,2025_Jun_05_0914,HaririTask_Ver2,3.0.1,None,
Fear,stimuli/19F_FE_O.BMP,stimuli/18F_FE_O.BMP,stimuli/19F_FE_O.BMP,stimuli/EmptyFrame.bmp,stimuli/RedFrame.bmp,2,Fear,Female,3,1,0,2,2,2,,,,,2,1,23.0881639001891,26.102462500333786,27.085516800172627,0.8383407997898757,,,sub010,001,2025_Jun_05_0914,HaririTask_Ver2,3.0.1,None,
Fear,stimuli/17F_FE_O.BMP,stimuli/17F_FE_O.BMP,stimuli/16F_FE_O.BMP,stimuli/EmptyFrame.bmp,stimuli/RedFrame.bmp,1,Fear,Female,3,1,0,3,3,3,,,,,1,1,27.104585099965334,30.113136200234294,31.105506900232285,0.9238436003215611,,,sub010,001,2025_Jun_05_0914,HaririTask_Ver2,3.0.1,None,
Fear,stimuli/21M_FE_O.BMP,stimuli/21M_FE_O.BMP,stimuli/22M_FE_O.BMP,stimuli/EmptyFrame.bmp,stimuli/RedFrame.bmp,1,Fear,Male,3,1,0,4,4,4,,,,,1,1,31.167630100157112,34.131792300380766,35.12529510026798,0.8962023998610675,,,sub010,001,2025_Jun_05_0914,HaririTask_Ver2,3.0.1,None,
Fear,stimuli/09F_FE_O.BMP,stimuli/07F_FE_O.BMP,stimuli/09F_FE_O.BMP,stimuli/EmptyFrame.bmp,stimuli/RedFrame.bmp,2,Fear,Female,3,1,0,5,5,5,,,,,2,1,35.15532980021089,38.15126620000228,39.134685300290585,0.9102181000635028,,,sub010,001,2025_Jun_05_0914,HaririTask_Ver2,3.0.1,None,
Fear,stimuli/08F_FE_O.BMP,stimuli/13F_FE_O.BMP,stimuli/08F_FE_O.BMP,stimuli/EmptyFrame.bmp,stimuli/RedFrame.bmp,2,Fear,Female,3,1,0,6,6,6,,,,,2,1,39.16172720026225,42.17075900034979,43.1515456000343,0.8048379998654127,,,sub010,001,2025_Jun_05_0914,HaririTask_Ver2,3.0.1,None,
Fear,stimuli/07F_FE_O.BMP,stimuli/07F_FE_O.BMP,stimuli/14F_FE_O.BMP,stimuli/EmptyFrame.bmp,stimuli/RedFrame.bmp,1,Fear,Female,3,1,0,7,7,7,,,,,1,1,43.17418530024588,46.18478470016271,47.16732450015843,0.837066600099206,,,sub010,001,2025_Jun_05_0914,HaririTask_Ver2,3.0.1,None,
Fear,stimuli/26M_FE_O.BMP,stimuli/26M_FE_O.BMP,stimuli/28M_FE_O.BMP,stimuli/EmptyFrame.bmp,stimuli/RedFrame.bmp,1,Fear,Male,3,1,0,8,8,8,,,,,1,1,47.19654450006783,50.24937970004976,51.18875190010294,0.7570472001098096,,,sub010,001,2025_Jun_05_0914,HaririTask_Ver2,3.0.1,None,
Fear,stimuli/10F_FE_O.BMP,stimuli/11F_FE_O.BMP,stimuli/10F_FE_O.BMP,stimuli/EmptyFrame.bmp,stimuli/RedFrame.bmp,2,Fear,Female,3,1,0,9,9,9,,,,,2,1,51.21443650033325,54.22321330010891,55.19891710020602,0.6061750999651849,,,sub010,001,2025_Jun_05_0914,HaririTask_Ver2,3.0.1,None,
Fear,stimuli/29M_FE_O.BMP,stimuli/30M_FE_O.BMP,stimuli/29M_FE_O.BMP,stimuli/EmptyFrame.bmp,stimuli/RedFrame.bmp,2,Fear,Male,3,1,0,10,10,10,,,,,2,1,55.228012800216675,58.230414300225675,59.2196085001342,0.7975917002186179,,,sub010,001,2025_Jun_05_0914,HaririTask_Ver2,3.0.1,None,
MatchFaces,stimuli/MatchFaces.bmp,stimuli/EmptyFace.bmp,stimuli/EmptyFace.bmp,stimuli/EmptyFrame.bmp,stimuli/EmptyFrame.bmp,Null,None,None,3,1,0,11,11,11,,,,,None,0,59.35162810003385,62.22964549995959,63.224311500322074,,,,sub010,001,2025_Jun_05_0914,HaririTask_Ver2,3.0.1,None,
Neutral,stimuli/07F_NE_C.BMP,stimuli/07F_NE_C.BMP,stimuli/14F_NE_C.BMP,stimuli/EmptyFrame.bmp,stimuli/RedFrame.bmp,1,Neutral,Female,3,1,0,12,12,12,,,,,1,1,63.275552400387824,66.25982209993526,67.24000800028443,0.7517690001986921,,,sub010,001,2025_Jun_05_0914,HaririTask_Ver2,3.0.1,None,
Neutral,stimuli/25M_NE_C.BMP,stimuli/29M_NE_C.BMP,stimuli/25M_NE_C.BMP,stimuli/EmptyFrame.bmp,stimuli/RedFrame.bmp,2,Neutral,Male,3,1,0,13,13,13,,,,,2,1,67.26648689992726,70.26456010015681,71.26252999994904,0.8063552998937666,,,sub010,001,2025_Jun_05_0914,HaririTask_Ver2,3.0.1,None,
Neutral,stimuli/26M_NE_C.BMP,stimuli/26M_NE_C.BMP,stimuli/28M_NE_C.BMP,stimuli/EmptyFrame.bmp,stimuli/RedFrame.bmp,1,Neutral,Male,3,1,0,14,14,14,,,,,1,1,71.28950950037688,74.29718280024827,75.28262410033494,0.7433986999094486,,,sub010,001,2025_Jun_05_0914,HaririTask_Ver2,3.0.1,None,
Neutral,stimuli/08F_NE_C.BMP,stimuli/13F_NE_C.BMP,stimuli/08F_NE_C.BMP,stimuli/EmptyFrame.bmp,stimuli/RedFrame.bmp,2,Neutral,Female,3,1,0,15,15,15,,,,,2,1,75.30726659996435,78.30494780000299,79.30359320016578,0.734166800044477,,,sub010,001,2025_Jun_05_0914,HaririTask_Ver2,3.0.1,None,
Neutral,stimuli/09F_NE_C.BMP,stimuli/09F_NE_C.BMP,stimuli/12F_NE_C.BMP,stimuli/EmptyFrame.bmp,stimuli/RedFrame.bmp,1,Neutral,Female,3,1,0,16,16,16,,,,,1,1,79.33019920019433,82.32588590029627,83.32276850007474,0.6259404998272657,,,sub010,001,2025_Jun_05_0914,HaririTask_Ver2,3.0.1,None,
Neutral,stimuli/27M_NE_C.BMP,stimuli/26M_NE_C.BMP,stimuli/27M_NE_C.BMP,stimuli/EmptyFrame.bmp,stimuli/RedFrame.bmp,2,Neutral,Male,3,1,0,17,17,17,,,,,2,1,83.35326720029116,86.35978920012712,87.34554000012577,0.8431040002033114,,,sub010,001,2025_Jun_05_0914,HaririTask_Ver2,3.0.1,None,
Neutral,stimuli/28M_NE_C.BMP,stimuli/28M_NE_C.BMP,stimuli/25M_NE_C.BMP,stimuli/EmptyFrame.bmp,stimuli/RedFrame.bmp,1,Neutral,Male,3,1,0,18,18,18,,,,,1,1,87.36871660035104,90.36331030027941,91.35804150020704,0.7068173000589013,,,sub010,001,2025_Jun_05_0914,HaririTask_Ver2,3.0.1,None,
Neutral,stimuli/10F_NE_C.BMP,stimuli/11F_NE_C.BMP,stimuli/10F_NE_C.BMP,stimuli/EmptyFrame.bmp,stimuli/RedFrame.bmp,2,Neutral,Female,3,1,0,19,19,19,,,,,2,1,91.41477400017902,94.38894480001181,95.37875850033015,0.7126707998104393,,,sub010,001,2025_Jun_05_0914,HaririTask_Ver2,3.0.1,None,
Neutral,stimuli/29M_NE_C.BMP,stimuli/29M_NE_C.BMP,stimuli/24M_NE_C.BMP,stimuli/EmptyFrame.bmp,stimuli/RedFrame.bmp,1,Neutral,Male,3,1,0,20,20,20,,,,,1,1,95.403778700158,98.40689600026235,99.40097209997475,0.7392070000059903,,,sub010,001,2025_Jun_05_0914,HaririTask_Ver2,3.0.1,None,
Neutral,stimuli/11F_NE_C.BMP,stimuli/10F_NE_C.BMP,stimuli/11F_NE_C.BMP,stimuli/EmptyFrame.bmp,stimuli/RedFrame.bmp,2,Neutral,Female,3,1,0,21,21,21,,,,,2,1,99.42766170017421,102.4247332001105,103.42149920016527,0.6198511999100447,,,sub010,001,2025_Jun_05_0914,HaririTask_Ver2,3.0.1,None,
MatchShape,stimuli/MatchShapes.bmp,stimuli/EmptyFace.bmp,stimuli/EmptyFace.bmp,stimuli/EmptyFrame.bmp,stimuli/EmptyFrame.bmp,Null,None,None,3,1,0,22,22,22,,,,,None,0,103.45164550002664,106.44053040025756,107.42629329999909,,,,sub010,001,2025_Jun_05_0914,HaririTask_Ver2,3.0.1,None,
Shape,stimuli/circle.bmp,stimuli/vertical.bmp,stimuli/circle.bmp,stimuli/EmptyFrame.bmp,stimuli/RedFrame.bmp,2,Shape,None,3,1,0,23,23,23,,,,,2,1,107.45708950003609,110.45265820017084,111.44158140011132,0.7027818001806736,,,sub010,001,2025_Jun_05_0914,HaririTask_Ver2,3.0.1,None,
Shape,stimuli/horizontal.bmp,stimuli/circle.bmp,stimuli/horizontal.bmp,stimuli/EmptyFrame.bmp,stimuli/RedFrame.bmp,2,Shape,None,3,1,0,24,24,24,,,,,2,1,111.46549860015512,114.46639170031995,115.46253100037575,0.6598024000413716,,,sub010,001,2025_Jun_05_0914,HaririTask_Ver2,3.0.1,None,
Shape,stimuli/circle.bmp,stimuli/vertical.bmp,stimuli/circle.bmp,stimuli/EmptyFrame.bmp,stimuli/RedFrame.bmp,2,Shape,None,3,1,0,25,25,25,,,,,2,1,115.48632430005819,118.49153380002826,119.4729761001654,0.698617999907583,,,sub010,001,2025_Jun_05_0914,HaririTask_Ver2,3.0.1,None,
Shape,stimuli/vertical.bmp,stimuli/circle.bmp,stimuli/vertical.bmp,stimuli/EmptyFrame.bmp,stimuli/RedFrame.bmp,2,Shape,None,3,1,0,26,26,26,,,,,2,1,119.49308980023488,122.5119452001527,123.48647240037099,0.7442328999750316,,,sub010,001,2025_Jun_05_0914,HaririTask_Ver2,3.0.1,None,
Shape,stimuli/vertical.bmp,stimuli/horizontal.bmp,stimuli/vertical.bmp,stimuli/EmptyFrame.bmp,stimuli/RedFrame.bmp,2,Shape,None,3,1,0,27,27,27,,,,,2,1,123.50706450035796,126.51287299999967,127.50357310008258,0.8016747003421187,,,sub010,001,2025_Jun_05_0914,HaririTask_Ver2,3.0.1,None,
Shape,stimuli/horizontal.bmp,stimuli/horizontal.bmp,stimuli/vertical.bmp,stimuli/EmptyFrame.bmp,stimuli/RedFrame.bmp,1,Shape,None,3,1,0,28,28,28,,,,,1,1,127.52219319995493,130.53179479995742,131.51707460032776,0.6103623998351395,,,sub010,001,2025_Jun_05_0914,HaririTask_Ver2,3.0.1,None,
Shape,stimuli/horizontal.bmp,stimuli/circle.bmp,stimuli/horizontal.bmp,stimuli/EmptyFrame.bmp,stimuli/RedFrame.bmp,2,Shape,None,3,1,0,29,29,29,,,,,2,1,131.539568700362,134.54871240025386,135.53563710022718,0.582644899841398,,,sub010,001,2025_Jun_05_0914,HaririTask_Ver2,3.0.1,None,
Shape,stimuli/circle.bmp,stimuli/circle.bmp,stimuli/vertical.bmp,stimuli/EmptyFrame.bmp,stimuli/RedFrame.bmp,1,Shape,None,3,1,0,30,30,30,,,,,1,1,135.56198150012642,138.57381510036066,139.55504450015724,0.7018590001389384,,,sub010,001,2025_Jun_05_0914,HaririTask_Ver2,3.0.1,None,
Shape,stimuli/vertical.bmp,stimuli/horizontal.bmp,stimuli/vertical.bmp,stimuli/EmptyFrame.bmp,stimuli/RedFrame.bmp,2,Shape,None,3,1,0,31,31,31,,,,,2,1,139.5762485000305,142.5850186003372,143.5803537000902,0.5806828998029232,,,sub010,001,2025_Jun_05_0914,HaririTask_Ver2,3.0.1,None,
Shape,stimuli/vertical.bmp,stimuli/vertical.bmp,stimuli/horizontal.bmp,stimuli/EmptyFrame.bmp,stimuli/RedFrame.bmp,1,Shape,None,3,1,0,32,32,32,,,,,2,0,143.6113872001879,146.6352516002953,147.60007779998705,0.6590122999623418,,,sub010,001,2025_Jun_05_0914,HaririTask_Ver2,3.0.1,None,
MatchFaces,stimuli/MatchFaces.bmp,stimuli/EmptyFace.bmp,stimuli/EmptyFace.bmp,stimuli/EmptyFrame.bmp,stimuli/EmptyFrame.bmp,Null,None,None,3,1,0,33,33,33,,,,,None,0,147.7372865001671,150.60983790038154,151.61162620037794,,,,sub010,001,2025_Jun_05_0914,HaririTask_Ver2,3.0.1,None,
Anger,stimuli/20M_AN_O.BMP,stimuli/34M_AN_O.BMP,stimuli/20M_AN_O.BMP,stimuli/EmptyFrame.bmp,stimuli/RedFrame.bmp,2,Anger,Male,3,1,0,34,34,34,,,,,2,1,151.66328210011125,154.64105320023373,155.62651220010594,0.729657500050962,,,sub010,001,2025_Jun_05_0914,HaririTask_Ver2,3.0.1,None,
Anger,stimuli/01F_AN_O.bmp,stimuli/19F_AN_O.BMP,stimuli/01F_AN_O.bmp,stimuli/EmptyFrame.bmp,stimuli/RedFrame.bmp,2,Anger,Female,3,1,0,35,35,35,,,,,2,1,155.65269959997386,158.65593660017475,159.64076610002667,0.660281399730593,,,sub010,001,2025_Jun_05_0914,HaririTask_Ver2,3.0.1,None,
Anger,stimuli/06F_AN_O.bmp,stimuli/15F_AN_O.BMP,stimuli/06F_AN_O.bmp,stimuli/EmptyFrame.bmp,stimuli/RedFrame.bmp,2,Anger,Female,3,1,0,36,36,36,,,,,2,1,159.6723368000239,162.66272319993004,163.65976890036836,0.9195531001314521,,,sub010,001,2025_Jun_05_0914,HaririTask_Ver2,3.0.1,None,
Anger,stimuli/42M_AN_O.BMP,stimuli/42M_AN_O.BMP,stimuli/43M_AN_O.BMP,stimuli/EmptyFrame.bmp,stimuli/RedFrame.bmp,1,Anger,Male,3,1,0,37,37,37,,,,,1,1,163.68579560006037,166.69375490024686,167.6755161001347,0.8734445003792644,,,sub010,001,2025_Jun_05_0914,HaririTask_Ver2,3.0.1,None,
Anger,stimuli/40M_AN_O.BMP,stimuli/41M_AN_O.BMP,stimuli/40M_AN_O.BMP,stimuli/EmptyFrame.bmp,stimuli/RedFrame.bmp,2,Anger,Male,3,1,0,38,38,38,,,,,2,1,167.70014320034534,170.69838300021365,171.68791260011494,0.6349451001733541,,,sub010,001,2025_Jun_05_0914,HaririTask_Ver2,3.0.1,None,
Anger,stimuli/08F_AN_O.BMP,stimuli/08F_AN_O.BMP,stimuli/13F_AN_O.BMP,stimuli/EmptyFrame.bmp,stimuli/RedFrame.bmp,1,Anger,Female,3,1,0,39,39,39,,,,,1,1,171.7165701002814,174.71164799993858,175.69982830015942,0.8443840001709759,,,sub010,001,2025_Jun_05_0914,HaririTask_Ver2,3.0.1,None,
Anger,stimuli/09F_AN_O.BMP,stimuli/12F_AN_O.BMP,stimuli/09F_AN_O.BMP,stimuli/EmptyFrame.bmp,stimuli/RedFrame.bmp,2,Anger,Female,3,1,0,40,40,40,,,,,2,1,175.72436810005456,178.73709710035473,179.71714500011876,0.5805891999043524,,,sub010,001,2025_Jun_05_0914,HaririTask_Ver2,3.0.1,None,
Anger,stimuli/34M_AN_O.BMP,stimuli/35M_AN_O.BMP,stimuli/34M_AN_O.BMP,stimuli/EmptyFrame.bmp,stimuli/RedFrame.bmp,2,Anger,Male,3,1,0,41,41,41,,,,,2,1,179.74356240034103,182.74343100003898,183.7353417002596,0.6858817003667355,,,sub010,001,2025_Jun_05_0914,HaririTask_Ver2,3.0.1,None,
Anger,stimuli/24M_AN_O.BMP,stimuli/24M_AN_O.BMP,stimuli/30M_AN_O.BMP,stimuli/EmptyFrame.bmp,stimuli/RedFrame.bmp,1,Anger,Male,3,1,0,42,42,42,,,,,1,1,183.7605786002241,186.76801649993286,187.74807929992676,0.7153579001314938,,,sub010,001,2025_Jun_05_0914,HaririTask_Ver2,3.0.1,None,
Anger,stimuli/03F_AN_O.bmp,stimuli/03F_AN_O.bmp,stimuli/17F_AN_O.BMP,stimuli/EmptyFrame.bmp,stimuli/RedFrame.bmp,1,Anger,Female,3,1,0,43,43,43,,,,,1,1,187.77690840000287,190.77966410014778,191.76440690038726,0.6201892998069525,,,sub010,001,2025_Jun_05_0914,HaririTask_Ver2,3.0.1,None,
MatchFaces,stimuli/MatchFaces.bmp,stimuli/EmptyFace.bmp,stimuli/EmptyFace.bmp,stimuli/EmptyFrame.bmp,stimuli/EmptyFrame.bmp,Null,None,None,3,1,0,44,44,44,,,,,None,0,191.89798380015418,194.7796462001279,195.76775060035288,,,,sub010,001,2025_Jun_05_0914,HaririTask_Ver2,3.0.1,None,
Happy,stimuli/06F_HA_O.bmp,stimuli/07F_HA_O.BMP,stimuli/06F_HA_O.bmp,stimuli/EmptyFrame.bmp,stimuli/RedFrame.bmp,2,Happy,Female,3,1,0,45,45,45,,,,,2,1,195.82084050029516,198.80528490012512,199.78365080012009,0.8541417000815272,,,sub010,001,2025_Jun_05_0914,HaririTask_Ver2,3.0.1,None,
Happy,stimuli/13F_HA_O.BMP,stimuli/13F_HA_O.BMP,stimuli/12F_HA_O.BMP,stimuli/EmptyFrame.bmp,stimuli/RedFrame.bmp,1,Happy,Female,3,1,0,46,46,46,,,,,1,1,199.80917500006035,202.81010230025277,203.79908040026203,0.7435141000896692,,,sub010,001,2025_Jun_05_0914,HaririTask_Ver2,3.0.1,None,
Happy,stimuli/41M_HA_O.BMP,stimuli/41M_HA_O.BMP,stimuli/40M_HA_O.BMP,stimuli/EmptyFrame.bmp,stimuli/RedFrame.bmp,1,Happy,Male,3,1,0,47,47,47,,,,,1,1,203.82846130011603,206.82332830037922,207.81248610001057,0.7116764998063445,,,sub010,001,2025_Jun_05_0914,HaririTask_Ver2,3.0.1,None,
Happy,stimuli/03F_HA_O.bmp,stimuli/05F_HA_O.bmp,stimuli/03F_HA_O.bmp,stimuli/EmptyFrame.bmp,stimuli/RedFrame.bmp,2,Happy,Female,3,1,0,48,48,48,,,,,2,1,207.8358195000328,210.83580640004948,211.8297516000457,0.8703319998458028,,,sub010,001,2025_Jun_05_0914,HaririTask_Ver2,3.0.1,None,
Happy,stimuli/24M_HA_O.BMP,stimuli/24M_HA_O.BMP,stimuli/25M_HA_O.BMP,stimuli/EmptyFrame.bmp,stimuli/RedFrame.bmp,1,Happy,Male,3,1,0,49,49,49,,,,,1,1,211.85725630028173,214.85918979998678,215.84448300022632,0.7018328998237848,,,sub010,001,2025_Jun_05_0914,HaririTask_Ver2,3.0.1,None,
Happy,stimuli/19F_HA_O.BMP,stimuli/19F_HA_O.BMP,stimuli/18F_HA_O.BMP,stimuli/EmptyFrame.bmp,stimuli/RedFrame.bmp,1,Happy,Female,3,1,0,50,50,50,,,,,1,1,215.9120212001726,218.8834715001285,219.86535800015554,0.7911968999542296,,,sub010,001,2025_Jun_05_0914,HaririTask_Ver2,3.0.1,None,
Happy,stimuli/01F_HA_O.bmp,stimuli/01F_HA_O.bmp,stimuli/02F_HA_O.bmp,stimuli/EmptyFrame.bmp,stimuli/RedFrame.bmp,1,Happy,Female,3,1,0,51,51,51,,,,,1,1,219.89057649997994,222.89934330014512,223.88400309998542,0.7950657000765204,,,sub010,001,2025_Jun_05_0914,HaririTask_Ver2,3.0.1,None,
Happy,stimuli/22M_HA_O.BMP,stimuli/23M_HA_O.BMP,stimuli/22M_HA_O.BMP,stimuli/EmptyFrame.bmp,stimuli/RedFrame.bmp,2,Happy,Male,3,1,0,52,52,52,,,,,2,1,223.9160234001465,226.90667330008,227.90438780002296,1.0292540001682937,,,sub010,001,2025_Jun_05_0914,HaririTask_Ver2,3.0.1,None,
Happy,stimuli/35M_HA_O.BMP,stimuli/34M_HA_O.BMP,stimuli/35M_HA_O.BMP,stimuli/EmptyFrame.bmp,stimuli/RedFrame.bmp,2,Happy,Male,3,1,0,53,53,53,,,,,2,1,227.93073240015656,230.9315424002707,231.9194082999602,0.8629876002669334,,,sub010,001,2025_Jun_05_0914,HaririTask_Ver2,3.0.1,None,
Happy,stimuli/39M_HA_O.BMP,stimuli/38M_HA_O.BMP,stimuli/39M_HA_O.BMP,stimuli/EmptyFrame.bmp,stimuli/RedFrame.bmp,2,Happy,Male,3,1,0,54,54,54,,,,,2,1,231.9500309000723,234.9430234003812,235.93923080014065,0.868459400255233,,,sub010,001,2025_Jun_05_0914,HaririTask_Ver2,3.0.1,None,
Match Shape,stimuli/MatchShapes.bmp,stimuli/EmptyFace.bmp,stimuli/EmptyFace.bmp,stimuli/EmptyFrame.bmp,stimuli/EmptyFrame.bmp,Null,None,None,3,1,0,55,55,55,,,,,None,0,235.9613065002486,238.94893620023504,239.9434529999271,,,,sub010,001,2025_Jun_05_0914,HaririTask_Ver2,3.0.1,None,
Shape,stimuli/horizontal.bmp,stimuli/horizontal.bmp,stimuli/vertical.bmp,stimuli/EmptyFrame.bmp,stimuli/RedFrame.bmp,1,Shape,None,3,1,0,56,56,56,,,,,1,1,239.9799931999296,242.97693050000817,243.9657396003604,0.9456642000004649,,,sub010,001,2025_Jun_05_0914,HaririTask_Ver2,3.0.1,None,
Shape,stimuli/horizontal.bmp,stimuli/horizontal.bmp,stimuli/circle.bmp,stimuli/EmptyFrame.bmp,stimuli/RedFrame.bmp,1,Shape,None,3,1,0,57,57,57,,,,,1,1,243.98734480002895,246.99563190015033,247.98283220035955,0.6727545000612736,,,sub010,001,2025_Jun_05_0914,HaririTask_Ver2,3.0.1,None,
Shape,stimuli/circle.bmp,stimuli/vertical.bmp,stimuli/circle.bmp,stimuli/EmptyFrame.bmp,stimuli/RedFrame.bmp,2,Shape,None,3,1,0,58,58,58,,,,,2,1,248.00673269992694,251.0141398003325,252.0049453000538,0.7520773001015186,,,sub010,001,2025_Jun_05_0914,HaririTask_Ver2,3.0.1,None,
Shape,stimuli/vertical.bmp,stimuli/vertical.bmp,stimuli/circle.bmp,stimuli/EmptyFrame.bmp,stimuli/RedFrame.bmp,1,Shape,None,3,1,0,59,59,59,,,,,1,1,252.02739230031148,255.03099390026182,256.02589040016755,0.7157028997316957,,,sub010,001,2025_Jun_05_0914,HaririTask_Ver2,3.0.1,None,
Shape,stimuli/horizontal.bmp,stimuli/horizontal.bmp,stimuli/circle.bmp,stimuli/EmptyFrame.bmp,stimuli/RedFrame.bmp,1,Shape,None,3,1,0,60,60,60,,,,,1,1,256.0474666003138,259.0465168002993,260.0344165000133,0.7918069995939732,,,sub010,001,2025_Jun_05_0914,HaririTask_Ver2,3.0.1,None,
Shape,stimuli/vertical.bmp,stimuli/vertical.bmp,stimuli/circle.bmp,stimuli/EmptyFrame.bmp,stimuli/RedFrame.bmp,1,Shape,None,3,1,0,61,61,61,,,,,1,1,260.0553212999366,263.0655251001008,264.0465318001807,0.6498992997221649,,,sub010,001,2025_Jun_05_0914,HaririTask_Ver2,3.0.1,None,
Shape,stimuli/horizontal.bmp,stimuli/circle.bmp,stimuli/horizontal.bmp,stimuli/EmptyFrame.bmp,stimuli/RedFrame.bmp,2,Shape,None,3,1,0,62,62,62,,,,,2,1,264.06923090014607,267.07244280027226,268.05935050034896,0.7152203000150621,,,sub010,001,2025_Jun_05_0914,HaririTask_Ver2,3.0.1,None,
Shape,stimuli/circle.bmp,stimuli/circle.bmp,stimuli/horizontal.bmp,stimuli/EmptyFrame.bmp,stimuli/RedFrame.bmp,1,Shape,None,3,1,0,63,63,63,,,,,1,1,268.0782775003463,271.0901697999798,272.0743317999877,0.6511404002085328,,,sub010,001,2025_Jun_05_0914,HaririTask_Ver2,3.0.1,None,
Shape,stimuli/circle.bmp,stimuli/horizontal.bmp,stimuli/circle.bmp,stimuli/EmptyFrame.bmp,stimuli/RedFrame.bmp,2,Shape,None,3,1,0,64,64,64,,,,,2,1,272.09384510014206,275.1057542003691,276.0910658999346,0.8231883998960257,,,sub010,001,2025_Jun_05_0914,HaririTask_Ver2,3.0.1,None,
Shape,stimuli/vertical.bmp,stimuli/vertical.bmp,stimuli/horizontal.bmp,stimuli/EmptyFrame.bmp,stimuli/RedFrame.bmp,1,Shape,None,3,1,0,65,65,65,,,,,1,1,276.1098102000542,279.1241152002476,280.11064920015633,1.3951052003540099,,,sub010,001,2025_Jun_05_0914,HaririTask_Ver2,3.0.1,None,
MatchFaces,stimuli/MatchFaces.bmp,stimuli/EmptyFace.bmp,stimuli/EmptyFace.bmp,stimuli/EmptyFrame.bmp,stimuli/EmptyFrame.bmp,Null,None,None,3,1,0,66,66,66,,,,,None,0,280.23725120024756,283.12907529994845,284.12117360020056,,,,sub010,001,2025_Jun_05_0914,HaririTask_Ver2,3.0.1,None,
Neutral,stimuli/20M_NE_C.BMP,stimuli/21M_NE_C.BMP,stimuli/20M_NE_C.BMP,stimuli/EmptyFrame.bmp,stimuli/RedFrame.bmp,2,Neutral,Male,3,1,0,67,67,67,,,,,2,1,284.16794260032475,287.152994800359,288.1345710000023,0.8402440999634564,,,sub010,001,2025_Jun_05_0914,HaririTask_Ver2,3.0.1,None,
Neutral,stimuli/01F_NE_C.bmp,stimuli/01F_NE_C.bmp,stimuli/02F_NE_C.bmp,stimuli/EmptyFrame.bmp,stimuli/RedFrame.bmp,1,Neutral,Female,3,1,0,68,68,68,,,,,1,1,288.162893100176,291.1656196000986,292.1461781002581,0.7461933000013232,,,sub010,001,2025_Jun_05_0914,HaririTask_Ver2,3.0.1,None,
Neutral,stimuli/22M_NE_C.BMP,stimuli/23M_NE_C.BMP,stimuli/22M_NE_C.BMP,stimuli/EmptyFrame.bmp,stimuli/RedFrame.bmp,2,Neutral,Male,3,1,0,69,69,69,,,,,2,1,292.17525750026107,295.1697738002986,296.16585780028254,0.8001279998570681,,,sub010,001,2025_Jun_05_0914,HaririTask_Ver2,3.0.1,None,
Neutral,stimuli/24M_NE_C.BMP,stimuli/24M_NE_C.BMP,stimuli/25M_NE_C.BMP,stimuli/EmptyFrame.bmp,stimuli/RedFrame.bmp,1,Neutral,Male,3,1,0,70,70,70,,,,,1,1,296.18875320022926,299.2027155002579,300.179800900165,0.77490200009197,,,sub010,001,2025_Jun_05_0914,HaririTask_Ver2,3.0.1,None,
Neutral,stimuli/03F_NE_C.bmp,stimuli/05F_NE_C.bmp,stimuli/03F_NE_C.bmp,stimuli/EmptyFrame.bmp,stimuli/RedFrame.bmp,2,Neutral,Female,3,1,0,71,71,71,,,,,2,1,300.20598720014095,303.21081450022757,304.19215310039,0.7380901998840272,,,sub010,001,2025_Jun_05_0914,HaririTask_Ver2,3.0.1,None,
Neutral,stimuli/26M_NE_C.BMP,stimuli/26M_NE_C.BMP,stimuli/27M_NE_C.BMP,stimuli/EmptyFrame.bmp,stimuli/RedFrame.bmp,1,Neutral,Male,3,1,0,72,72,72,,,,,1,1,304.21917359996587,307.2180218999274,308.21281880000606,0.8100902000442147,,,sub010,001,2025_Jun_05_0914,HaririTask_Ver2,3.0.1,None,
Neutral,stimuli/06F_NE_C.bmp,stimuli/07F_NE_C.BMP,stimuli/06F_NE_C.bmp,stimuli/EmptyFrame.bmp,stimuli/RedFrame.bmp,2,Neutral,Female,3,1,0,73,73,73,,,,,2,1,308.2383248000406,311.2410885002464,312.2235493003391,0.9766746000386775,,,sub010,001,2025_Jun_05_0914,HaririTask_Ver2,3.0.1,None,
Neutral,stimuli/08F_NE_C.BMP,stimuli/08F_NE_C.BMP,stimuli/09F_NE_C.BMP,stimuli/EmptyFrame.bmp,stimuli/RedFrame.bmp,1,Neutral,Female,3,1,0,74,74,74,,,,,1,1,312.2484518000856,315.24608620023355,316.23675370030105,0.9927086997777224,,,sub010,001,2025_Jun_05_0914,HaririTask_Ver2,3.0.1,None,
Neutral,stimuli/28M_NE_C.BMP,stimuli/29M_NE_C.BMP,stimuli/28M_NE_C.BMP,stimuli/EmptyFrame.bmp,stimuli/RedFrame.bmp,2,Neutral,Male,3,1,0,75,75,75,,,,,2,1,316.2582529000938,319.2665786999278,320.25126000028104,0.7286968999542296,,,sub010,001,2025_Jun_05_0914,HaririTask_Ver2,3.0.1,None,
Neutral,stimuli/10F_NE_C.BMP,stimuli/10F_NE_C.BMP,stimuli/06F_NE_C.bmp,stimuli/EmptyFrame.bmp,stimuli/RedFrame.bmp,1,Neutral,Female,3,1,0,76,76,76,,,,,1,1,320.2712537003681,323.2800317001529,324.2664010999724,0.7700802003964782,,,sub010,001,2025_Jun_05_0914,HaririTask_Ver2,3.0.1,None,
MatchFaces,stimuli/MatchFaces.bmp,stimuli/EmptyFace.bmp,stimuli/EmptyFace.bmp,stimuli/EmptyFrame.bmp,stimuli/EmptyFrame.bmp,Null,None,None,3,1,0,77,77,77,,,,,None,0,324.3970784000121,327.2757557001896,328.27162790019065,,,,sub010,001,2025_Jun_05_0914,HaririTask_Ver2,3.0.1,None,
Happy,stimuli/28M_HA_O.BMP,stimuli/29M_HA_O.BMP,stimuli/28M_HA_O.BMP,stimuli/EmptyFrame.bmp,stimuli/RedFrame.bmp,2,Happy,Male,3,1,0,78,78,78,,,,,2,1,328.3224401003681,331.29298860020936,332.2958479002118,0.9055059002712369,,,sub010,001,2025_Jun_05_0914,HaririTask_Ver2,3.0.1,None,
Happy,stimuli/10F_HA_O.BMP,stimuli/10F_HA_O.BMP,stimuli/06F_HA_O.bmp,stimuli/EmptyFrame.bmp,stimuli/RedFrame.bmp,1,Happy,Female,3,1,0,79,79,79,,,,,1,1,332.3223409000784,335.3321406003088,336.31759530026466,0.7845949996262789,,,sub010,001,2025_Jun_05_0914,HaririTask_Ver2,3.0.1,None,
Happy,stimuli/26M_HA_O.BMP,stimuli/26M_HA_O.BMP,stimuli/27M_HA_O.BMP,stimuli/EmptyFrame.bmp,stimuli/RedFrame.bmp,1,Happy,Male,3,1,0,80,80,80,,,,,1,1,336.34245879994705,339.34121590014547,340.32887030020356,0.7513661999255419,,,sub010,001,2025_Jun_05_0914,HaririTask_Ver2,3.0.1,None,
Happy,stimuli/20M_HA_O.BMP,stimuli/21M_HA_O.BMP,stimuli/20M_HA_O.BMP,stimuli/EmptyFrame.bmp,stimuli/RedFrame.bmp,2,Happy,Male,3,1,0,81,81,81,,,,,2,1,340.3594382000156,343.3618284999393,344.34759479993954,0.8075688001699746,,,sub010,001,2025_Jun_05_0914,HaririTask_Ver2,3.0.1,None,
Happy,stimuli/37M_HA_O.BMP,stimuli/37M_HA_O.BMP,stimuli/36M_HA_O.BMP,stimuli/EmptyFrame.bmp,stimuli/RedFrame.bmp,1,Happy,Male,3,1,0,82,82,82,,,,,1,1,344.37781700026244,347.3710815999657,348.3637598003261,0.7641910999082029,,,sub010,001,2025_Jun_05_0914,HaririTask_Ver2,3.0.1,None,
Happy,stimuli/43M_HA_O.BMP,stimuli/42M_HA_O.BMP,stimuli/43M_HA_O.BMP,stimuli/EmptyFrame.bmp,stimuli/RedFrame.bmp,2,Happy,Male,3,1,0,83,83,83,,,,,2,1,348.3910743999295,351.3899863003753,352.37690290017053,0.7159718000330031,,,sub010,001,2025_Jun_05_0914,HaririTask_Ver2,3.0.1,None,
Happy,stimuli/11F_HA_O.BMP,stimuli/10F_HA_O.BMP,stimuli/11F_HA_O.BMP,stimuli/EmptyFrame.bmp,stimuli/RedFrame.bmp,2,Happy,Female,3,1,0,84,84,84,,,,,2,1,352.40252240002155,355.4183515999466,356.39059990039095,0.7876177001744509,,,sub010,001,2025_Jun_05_0914,HaririTask_Ver2,3.0.1,None,
Happy,stimuli/17F_HA_O.BMP,stimuli/16F_HA_O.BMP,stimuli/17F_HA_O.BMP,stimuli/EmptyFrame.bmp,stimuli/RedFrame.bmp,2,Happy,Female,3,1,0,85,85,85,,,,,2,1,356.41984680015594,359.4174892003648,360.41358090005815,0.937801199965179,,,sub010,001,2025_Jun_05_0914,HaririTask_Ver2,3.0.1,None,
Happy,stimuli/15F_HA_O.BMP,stimuli/15F_HA_O.BMP,stimuli/14F_HA_O.BMP,stimuli/EmptyFrame.bmp,stimuli/RedFrame.bmp,1,Happy,Female,3,1,0,86,86,86,,,,,1,1,360.4393735001795,363.4453851999715,364.43105969997123,0.8521157000213861,,,sub010,001,2025_Jun_05_0914,HaririTask_Ver2,3.0.1,None,
Happy,stimuli/08F_HA_O.BMP,stimuli/08F_HA_O.BMP,stimuli/09F_HA_O.BMP,stimuli/EmptyFrame.bmp,stimuli/RedFrame.bmp,1,Happy,Female,3,1,0,87,87,87,,,,,1,1,364.45597090013325,367.4539339002222,368.4482172001153,1.3386213001795113,,,sub010,001,2025_Jun_05_0914,HaririTask_Ver2,3.0.1,None,
MatchFaces,stimuli/MatchFaces.bmp,stimuli/EmptyFace.bmp,stimuli/EmptyFace.bmp,stimuli/EmptyFrame.bmp,stimuli/EmptyFrame.bmp,Null,None,None,3,1,0,88,88,88,,,,,None,0,368.5796382999979,371.4728032001294,372.4616438001394,,,,sub010,001,2025_Jun_05_0914,HaririTask_Ver2,3.0.1,None,
Fear,stimuli/34M_FE_O.BMP,stimuli/34M_FE_O.BMP,stimuli/33M_FE_O.BMP,stimuli/EmptyFrame.bmp,stimuli/RedFrame.bmp,1,Fear,Male,3,1,0,89,89,89,,,,,1,1,372.5094598000869,375.4959132000804,376.4836439001374,0.8800595002248883,,,sub010,001,2025_Jun_05_0914,HaririTask_Ver2,3.0.1,None,
Fear,stimuli/28M_FE_O.BMP,stimuli/28M_FE_O.BMP,stimuli/25M_FE_O.BMP,stimuli/EmptyFrame.bmp,stimuli/RedFrame.bmp,1,Fear,Male,3,1,0,90,90,90,,,,,1,1,376.51171729993075,379.5264194002375,380.49955020006746,0.7789476001635194,,,sub010,001,2025_Jun_05_0914,HaririTask_Ver2,3.0.1,None,
Fear,stimuli/11F_FE_O.BMP,stimuli/10F_FE_O.BMP,stimuli/11F_FE_O.BMP,stimuli/EmptyFrame.bmp,stimuli/RedFrame.bmp,2,Fear,Female,3,1,0,91,91,91,,,,,2,1,380.520175000187,383.5277542001568,384.5089801000431,0.749696800019592,,,sub010,001,2025_Jun_05_0914,HaririTask_Ver2,3.0.1,None,
Fear,stimuli/27M_FE_O.BMP,stimuli/26M_FE_O.BMP,stimuli/27M_FE_O.BMP,stimuli/EmptyFrame.bmp,stimuli/RedFrame.bmp,2,Fear,Male,3,1,0,92,92,92,,,,,2,1,384.53426330024377,387.5356888002716,388.53110200027004,0.8581850999034941,,,sub010,001,2025_Jun_05_0914,HaririTask_Ver2,3.0.1,None,
Fear,stimuli/11F_FE_O.BMP,stimuli/12F_FE_O.BMP,stimuli/11F_FE_O.BMP,stimuli/EmptyFrame.bmp,stimuli/RedFrame.bmp,2,Fear,Female,3,1,0,93,93,93,,,,,2,1,388.5589582002722,391.5616590003483,392.5536879003048,0.7852039998397231,,,sub010,001,2025_Jun_05_0914,HaririTask_Ver2,3.0.1,None,
Fear,stimuli/31M_FE_O.BMP,stimuli/31M_FE_O.BMP,stimuli/38M_FE_O.BMP,stimuli/EmptyFrame.bmp,stimuli/RedFrame.bmp,1,Fear,Male,3,1,0,94,94,94,,,,,1,1,392.5846871002577,395.5818565003574,396.5725561999716,0.6371579999104142,,,sub010,001,2025_Jun_05_0914,HaririTask_Ver2,3.0.1,None,
Fear,stimuli/29M_FE_O.BMP,stimuli/29M_FE_O.BMP,stimuli/24M_FE_O.BMP,stimuli/EmptyFrame.bmp,stimuli/RedFrame.bmp,1,Fear,Male,3,1,0,95,95,95,,,,,1,1,396.59057700028643,399.6089029000141,400.5853287000209,0.7271944000385702,,,sub010,001,2025_Jun_05_0914,HaririTask_Ver2,3.0.1,None,
Fear,stimuli/25M_FE_O.BMP,stimuli/29M_FE_O.BMP,stimuli/25M_FE_O.BMP,stimuli/EmptyFrame.bmp,stimuli/RedFrame.bmp,2,Fear,Male,3,1,0,96,96,96,,,,,2,1,400.6092290999368,403.6195621001534,404.5973472003825,0.8980588000267744,,,sub010,001,2025_Jun_05_0914,HaririTask_Ver2,3.0.1,None,
Fear,stimuli/15F_FE_O.BMP,stimuli/18F_FE_O.BMP,stimuli/15F_FE_O.BMP,stimuli/EmptyFrame.bmp,stimuli/RedFrame.bmp,2,Fear,Female,3,1,0,97,97,97,,,,,2,1,404.6231811000034,407.63196170004085,408.61409769998863,0.6719359001144767,,,sub010,001,2025_Jun_05_0914,HaririTask_Ver2,3.0.1,None,
Fear,stimuli/09F_FE_O.BMP,stimuli/09F_FE_O.BMP,stimuli/12F_FE_O.BMP,stimuli/EmptyFrame.bmp,stimuli/RedFrame.bmp,1,Fear,Female,3,1,0,98,98,98,,,,,1,1,408.6394246001728,411.6446939003654,412.63555769994855,0.6496600001119077,,,sub010,001,2025_Jun_05_0914,HaririTask_Ver2,3.0.1,None,
MatchFaces,stimuli/MatchFaces.bmp,stimuli/EmptyFace.bmp,stimuli/EmptyFace.bmp,stimuli/EmptyFrame.bmp,stimuli/EmptyFrame.bmp,Null,None,None,3,1,0,99,99,99,,,,,None,0,412.7633537002839,415.64977829996496,416.638594600372,,,,sub010,001,2025_Jun_05_0914,HaririTask_Ver2,3.0.1,None,
Anger,stimuli/23M_AN_O.BMP,stimuli/23M_AN_O.BMP,stimuli/31M_AN_O.BMP,stimuli/EmptyFrame.bmp,stimuli/RedFrame.bmp,1,Anger,Male,3,1,0,100,100,100,,,,,1,1,416.69047480029985,419.66724510025233,420.6601320002228,0.8255652002990246,,,sub010,001,2025_Jun_05_0914,HaririTask_Ver2,3.0.1,None,
Anger,stimuli/36M_AN_O.BMP,stimuli/37M_AN_O.BMP,stimuli/36M_AN_O.BMP,stimuli/EmptyFrame.bmp,stimuli/RedFrame.bmp,2,Anger,Male,3,1,0,101,101,101,,,,,2,1,420.68897509993985,423.6969539001584,424.6761285001412,0.7727375999093056,,,sub010,001,2025_Jun_05_0914,HaririTask_Ver2,3.0.1,None,
Anger,stimuli/38M_AN_O.BMP,stimuli/39M_AN_O.BMP,stimuli/38M_AN_O.BMP,stimuli/EmptyFrame.bmp,stimuli/RedFrame.bmp,2,Anger,Male,3,1,0,102,102,102,,,,,2,1,424.7066623000428,427.70584540022537,428.69785890029743,0.7063841000199318,,,sub010,001,2025_Jun_05_0914,HaririTask_Ver2,3.0.1,None,
Anger,stimuli/02f_an_o.bmp,stimuli/18F_AN_O.BMP,stimuli/02f_an_o.bmp,stimuli/EmptyFrame.bmp,stimuli/RedFrame.bmp,2,Anger,Female,3,1,0,103,103,103,,,,,2,1,428.7287265001796,431.73290710011497,432.7143887002021,0.6666898000985384,,,sub010,001,2025_Jun_05_0914,HaririTask_Ver2,3.0.1,None,
Anger,stimuli/22M_AN_O.BMP,stimuli/32M_AN_O.BMP,stimuli/22M_AN_O.BMP,stimuli/EmptyFrame.bmp,stimuli/RedFrame.bmp,2,Anger,Male,3,1,0,104,104,104,,,,,2,1,432.78167210007086,435.74086820008233,436.72472830023617,0.7350284000858665,,,sub010,001,2025_Jun_05_0914,HaririTask_Ver2,3.0.1,None,
Anger,stimuli/12F_AN_O.BMP,stimuli/12F_AN_O.BMP,stimuli/13F_AN_O.BMP,stimuli/EmptyFrame.bmp,stimuli/RedFrame.bmp,1,Anger,Female,3,1,0,105,105,105,,,,,1,1,436.7491790000349,439.7595206000842,440.745317700319,0.7615613001398742,,,sub010,001,2025_Jun_05_0914,HaririTask_Ver2,3.0.1,None,
Anger,stimuli/05F_AN_O.bmp,stimuli/05F_AN_O.bmp,stimuli/16F_AN_O.BMP,stimuli/EmptyFrame.bmp,stimuli/RedFrame.bmp,1,Anger,Female,3,1,0,106,106,106,,,,,1,1,440.7724180002697,443.7741775000468,444.76542750000954,0.7210716996341944,,,sub010,001,2025_Jun_05_0914,HaririTask_Ver2,3.0.1,None,
Anger,stimuli/21M_AN_O.BMP,stimuli/21M_AN_O.BMP,stimuli/33M_AN_O.BMP,stimuli/EmptyFrame.bmp,stimuli/RedFrame.bmp,1,Anger,Male,3,1,0,107,107,107,,,,,1,1,444.79232110036537,447.80169779993594,448.7779443003237,0.5982599998824298,,,sub010,001,2025_Jun_05_0914,HaririTask_Ver2,3.0.1,None,
Anger,stimuli/07F_AN_O.BMP,stimuli/07F_AN_O.BMP,stimuli/14F_AN_O.BMP,stimuli/EmptyFrame.bmp,stimuli/RedFrame.bmp,1,Anger,Female,3,1,0,108,108,108,,,,,1,1,448.8055794001557,451.81681099999696,452.788886600174,0.7374921003356576,,,sub010,001,2025_Jun_05_0914,HaririTask_Ver2,3.0.1,None,
Anger,stimuli/10F_AN_O.BMP,stimuli/10F_AN_O.BMP,stimuli/11F_AN_O.BMP,stimuli/EmptyFrame.bmp,stimuli/RedFrame.bmp,1,Anger,Female,3,1,0,109,109,109,,,,,1,1,452.8192728003487,455.812673300039,456.8046125001274,0.8254192997701466,,,sub010,001,2025_Jun_05_0914,HaririTask_Ver2,3.0.1,None,
,,,,,,,,,,,,,,,,,,,,,,,,,456.8288568002172,471.80844760034233,,,,,,,
