TrialType,Top,Left,Right,EmptyFrame,SelectedFrame,Correct,Emotion,Gender,TrialLength,FixationLength,trials.thisRepN,trials.thisTrialN,trials.thisN,trials.thisIndex,key_resp_starttask.keys,key_resp_starttask.rt,GCBeginningFixationStartTime,GCBeginningFixationEndTime,key_resp_trial.keys,key_resp_trial.corr,GCFaceStartTime,GCPostFaceFixationStartTime,GCPostFaceFixationEndTime,key_resp_trial.rt,GCEndingFixationStartTime,GCEndingFixationEndTime,participant,session,date,expName,psychopyVersion,frameRate,
,,,,,,,,,,,,,,,5,11.97109459998319,,,,,,,,,,,sub026,001,2025_Aug_07_0917,HaririTask_Ver2,3.0.1,None,
MatchFaces,stimuli/MatchFaces.bmp,stimuli/EmptyFace.bmp,stimuli/EmptyFace.bmp,stimuli/EmptyFrame.bmp,stimuli/EmptyFrame.bmp,Null,None,None,3,1,0,0,0,0,,,1.600012183189392e-06,15.004895999998553,None,0,15.280351399997016,18.04833580000559,19.046580199996242,,,,sub026,001,2025_Aug_07_0917,HaririTask_Ver2,3.0.1,None,
Fear,stimuli/23M_FE_O.BMP,stimuli/23M_FE_O.BMP,stimuli/24M_FE_O.BMP,stimuli/EmptyFrame.bmp,stimuli/RedFrame.bmp,1,Fear,Male,3,1,0,1,1,1,,,,,1,1,19.213428100018064,22.078380100021604,23.067226400016807,1.586288999998942,,,sub026,001,2025_Aug_07_0917,HaririTask_Ver2,3.0.1,None,
Fear,stimuli/19F_FE_O.BMP,stimuli/18F_FE_O.BMP,stimuli/19F_FE_O.BMP,stimuli/EmptyFrame.bmp,stimuli/RedFrame.bmp,2,Fear,Female,3,1,0,2,2,2,,,,,2,1,23.09439020001446,26.091542900016066,27.077250000002095,1.2217577999981586,,,sub026,001,2025_Aug_07_0917,HaririTask_Ver2,3.0.1,None,
Fear,stimuli/17F_FE_O.BMP,stimuli/17F_FE_O.BMP,stimuli/16F_FE_O.BMP,stimuli/EmptyFrame.bmp,stimuli/RedFrame.bmp,1,Fear,Female,3,1,0,3,3,3,,,,,1,1,27.101560300012352,30.109779999998864,31.089593500015326,1.067986700014444,,,sub026,001,2025_Aug_07_0917,HaririTask_Ver2,3.0.1,None,
Fear,stimuli/21M_FE_O.BMP,stimuli/21M_FE_O.BMP,stimuli/22M_FE_O.BMP,stimuli/EmptyFrame.bmp,stimuli/RedFrame.bmp,1,Fear,Male,3,1,0,4,4,4,,,,,1,1,31.11256440001307,34.111425500013866,35.105884899996454,1.4857718999846838,,,sub026,001,2025_Aug_07_0917,HaririTask_Ver2,3.0.1,None,
Fear,stimuli/09F_FE_O.BMP,stimuli/07F_FE_O.BMP,stimuli/09F_FE_O.BMP,stimuli/EmptyFrame.bmp,stimuli/RedFrame.bmp,2,Fear,Female,3,1,0,5,5,5,,,,,2,1,35.131582300004084,38.1354422000004,39.11938010001904,1.56241250000312,,,sub026,001,2025_Aug_07_0917,HaririTask_Ver2,3.0.1,None,
Fear,stimuli/08F_FE_O.BMP,stimuli/13F_FE_O.BMP,stimuli/08F_FE_O.BMP,stimuli/EmptyFrame.bmp,stimuli/RedFrame.bmp,2,Fear,Female,3,1,0,6,6,6,,,,,2,1,39.14580680002109,42.1461513999966,43.13484330000938,1.1247289999737404,,,sub026,001,2025_Aug_07_0917,HaririTask_Ver2,3.0.1,None,
Fear,stimuli/07F_FE_O.BMP,stimuli/07F_FE_O.BMP,stimuli/14F_FE_O.BMP,stimuli/EmptyFrame.bmp,stimuli/RedFrame.bmp,1,Fear,Female,3,1,0,7,7,7,,,,,1,1,43.15943550001248,46.16626920000999,47.14902860001894,0.8559813000028953,,,sub026,001,2025_Aug_07_0917,HaririTask_Ver2,3.0.1,None,
Fear,stimuli/26M_FE_O.BMP,stimuli/26M_FE_O.BMP,stimuli/28M_FE_O.BMP,stimuli/EmptyFrame.bmp,stimuli/RedFrame.bmp,1,Fear,Male,3,1,0,8,8,8,,,,,1,1,47.17398960000719,50.17879070001072,51.161605700006476,0.8587839000101667,,,sub026,001,2025_Aug_07_0917,HaririTask_Ver2,3.0.1,None,
Fear,stimuli/10F_FE_O.BMP,stimuli/11F_FE_O.BMP,stimuli/10F_FE_O.BMP,stimuli/EmptyFrame.bmp,stimuli/RedFrame.bmp,2,Fear,Female,3,1,0,9,9,9,,,,,2,1,51.18187230001786,54.18860829999903,55.1771137000178,0.6405595999967773,,,sub026,001,2025_Aug_07_0917,HaririTask_Ver2,3.0.1,None,
Fear,stimuli/29M_FE_O.BMP,stimuli/30M_FE_O.BMP,stimuli/29M_FE_O.BMP,stimuli/EmptyFrame.bmp,stimuli/RedFrame.bmp,2,Fear,Male,3,1,0,10,10,10,,,,,2,1,55.202165499998955,58.211702700005844,59.202378700021654,0.9650474999798462,,,sub026,001,2025_Aug_07_0917,HaririTask_Ver2,3.0.1,None,
MatchFaces,stimuli/MatchFaces.bmp,stimuli/EmptyFace.bmp,stimuli/EmptyFace.bmp,stimuli/EmptyFrame.bmp,stimuli/EmptyFrame.bmp,Null,None,None,3,1,0,11,11,11,,,,,None,0,59.368519700015895,62.219272999995155,63.21417469999869,,,,sub026,001,2025_Aug_07_0917,HaririTask_Ver2,3.0.1,None,
Neutral,stimuli/07F_NE_C.BMP,stimuli/07F_NE_C.BMP,stimuli/14F_NE_C.BMP,stimuli/EmptyFrame.bmp,stimuli/RedFrame.bmp,1,Neutral,Female,3,1,0,12,12,12,,,,,1,1,63.26401569999871,66.24927490000846,67.22815510001965,0.8358994000009261,,,sub026,001,2025_Aug_07_0917,HaririTask_Ver2,3.0.1,None,
Neutral,stimuli/25M_NE_C.BMP,stimuli/29M_NE_C.BMP,stimuli/25M_NE_C.BMP,stimuli/EmptyFrame.bmp,stimuli/RedFrame.bmp,2,Neutral,Male,3,1,0,13,13,13,,,,,2,1,67.2546796000097,70.26234420001856,71.23871700000018,0.7871309999900404,,,sub026,001,2025_Aug_07_0917,HaririTask_Ver2,3.0.1,None,
Neutral,stimuli/26M_NE_C.BMP,stimuli/26M_NE_C.BMP,stimuli/28M_NE_C.BMP,stimuli/EmptyFrame.bmp,stimuli/RedFrame.bmp,1,Neutral,Male,3,1,0,14,14,14,,,,,1,1,71.26826490001986,74.27202269999543,75.2542545000033,0.7704217999998946,,,sub026,001,2025_Aug_07_0917,HaririTask_Ver2,3.0.1,None,
Neutral,stimuli/08F_NE_C.BMP,stimuli/13F_NE_C.BMP,stimuli/08F_NE_C.BMP,stimuli/EmptyFrame.bmp,stimuli/RedFrame.bmp,2,Neutral,Female,3,1,0,15,15,15,,,,,2,1,75.28205599999637,78.28576349999639,79.2716528000019,0.8348912000074051,,,sub026,001,2025_Aug_07_0917,HaririTask_Ver2,3.0.1,None,
Neutral,stimuli/09F_NE_C.BMP,stimuli/09F_NE_C.BMP,stimuli/12F_NE_C.BMP,stimuli/EmptyFrame.bmp,stimuli/RedFrame.bmp,1,Neutral,Female,3,1,0,16,16,16,,,,,1,1,79.30185499999789,82.29904850001913,83.29089699999895,0.7331203000212554,,,sub026,001,2025_Aug_07_0917,HaririTask_Ver2,3.0.1,None,
Neutral,stimuli/27M_NE_C.BMP,stimuli/26M_NE_C.BMP,stimuli/27M_NE_C.BMP,stimuli/EmptyFrame.bmp,stimuli/RedFrame.bmp,2,Neutral,Male,3,1,0,17,17,17,,,,,2,1,83.31621720001567,86.31251000001794,87.3112875999941,1.0342143999878317,,,sub026,001,2025_Aug_07_0917,HaririTask_Ver2,3.0.1,None,
Neutral,stimuli/28M_NE_C.BMP,stimuli/28M_NE_C.BMP,stimuli/25M_NE_C.BMP,stimuli/EmptyFrame.bmp,stimuli/RedFrame.bmp,1,Neutral,Male,3,1,0,18,18,18,,,,,1,1,87.33587740000803,90.33493090001866,91.33204460001434,0.9113402999937534,,,sub026,001,2025_Aug_07_0917,HaririTask_Ver2,3.0.1,None,
Neutral,stimuli/10F_NE_C.BMP,stimuli/11F_NE_C.BMP,stimuli/10F_NE_C.BMP,stimuli/EmptyFrame.bmp,stimuli/RedFrame.bmp,2,Neutral,Female,3,1,0,19,19,19,,,,,2,1,91.35822210001061,94.36580339999637,95.34388369999942,0.6720019999775104,,,sub026,001,2025_Aug_07_0917,HaririTask_Ver2,3.0.1,None,
Neutral,stimuli/29M_NE_C.BMP,stimuli/29M_NE_C.BMP,stimuli/24M_NE_C.BMP,stimuli/EmptyFrame.bmp,stimuli/RedFrame.bmp,1,Neutral,Male,3,1,0,20,20,20,,,,,1,1,95.36690260001342,98.36532850001822,99.36051630001748,0.8765276000194717,,,sub026,001,2025_Aug_07_0917,HaririTask_Ver2,3.0.1,None,
Neutral,stimuli/11F_NE_C.BMP,stimuli/10F_NE_C.BMP,stimuli/11F_NE_C.BMP,stimuli/EmptyFrame.bmp,stimuli/RedFrame.bmp,2,Neutral,Female,3,1,0,21,21,21,,,,,2,1,99.3848660000076,102.38842360000126,103.37924510001903,1.0015251000004355,,,sub026,001,2025_Aug_07_0917,HaririTask_Ver2,3.0.1,None,
MatchShape,stimuli/MatchShapes.bmp,stimuli/EmptyFace.bmp,stimuli/EmptyFace.bmp,stimuli/EmptyFrame.bmp,stimuli/EmptyFrame.bmp,Null,None,None,3,1,0,22,22,22,,,,,None,0,103.40930860000663,106.39895540001453,107.38556520000566,,,,sub026,001,2025_Aug_07_0917,HaririTask_Ver2,3.0.1,None,
Shape,stimuli/circle.bmp,stimuli/vertical.bmp,stimuli/circle.bmp,stimuli/EmptyFrame.bmp,stimuli/RedFrame.bmp,2,Shape,None,3,1,0,23,23,23,,,,,2,1,107.42117300000973,110.41198340000119,111.40954140000395,0.8313413999858312,,,sub026,001,2025_Aug_07_0917,HaririTask_Ver2,3.0.1,None,
Shape,stimuli/horizontal.bmp,stimuli/circle.bmp,stimuli/horizontal.bmp,stimuli/EmptyFrame.bmp,stimuli/RedFrame.bmp,2,Shape,None,3,1,0,24,24,24,,,,,2,1,111.43778440001188,114.44050210001296,115.42409320001025,1.0688539000111632,,,sub026,001,2025_Aug_07_0917,HaririTask_Ver2,3.0.1,None,
Shape,stimuli/circle.bmp,stimuli/vertical.bmp,stimuli/circle.bmp,stimuli/EmptyFrame.bmp,stimuli/RedFrame.bmp,2,Shape,None,3,1,0,25,25,25,,,,,2,1,115.44597800000338,118.44860649999464,119.43859100001282,0.6664076000161003,,,sub026,001,2025_Aug_07_0917,HaririTask_Ver2,3.0.1,None,
Shape,stimuli/vertical.bmp,stimuli/circle.bmp,stimuli/vertical.bmp,stimuli/EmptyFrame.bmp,stimuli/RedFrame.bmp,2,Shape,None,3,1,0,26,26,26,,,,,2,1,119.46107160000247,122.46695689999615,123.45880500000203,0.7600499000109266,,,sub026,001,2025_Aug_07_0917,HaririTask_Ver2,3.0.1,None,
Shape,stimuli/vertical.bmp,stimuli/horizontal.bmp,stimuli/vertical.bmp,stimuli/EmptyFrame.bmp,stimuli/RedFrame.bmp,2,Shape,None,3,1,0,27,27,27,,,,,2,1,123.48202890000539,126.48889290000079,127.47857040000963,1.2270939000009093,,,sub026,001,2025_Aug_07_0917,HaririTask_Ver2,3.0.1,None,
Shape,stimuli/horizontal.bmp,stimuli/horizontal.bmp,stimuli/vertical.bmp,stimuli/EmptyFrame.bmp,stimuli/RedFrame.bmp,1,Shape,None,3,1,0,28,28,28,,,,,1,1,127.50224620001973,130.50735630001873,131.49713120001252,1.0456187000090722,,,sub026,001,2025_Aug_07_0917,HaririTask_Ver2,3.0.1,None,
Shape,stimuli/horizontal.bmp,stimuli/circle.bmp,stimuli/horizontal.bmp,stimuli/EmptyFrame.bmp,stimuli/RedFrame.bmp,2,Shape,None,3,1,0,29,29,29,,,,,2,1,131.5176754000131,134.52160680000088,135.50595500000054,0.7659609000256751,,,sub026,001,2025_Aug_07_0917,HaririTask_Ver2,3.0.1,None,
Shape,stimuli/circle.bmp,stimuli/circle.bmp,stimuli/vertical.bmp,stimuli/EmptyFrame.bmp,stimuli/RedFrame.bmp,1,Shape,None,3,1,0,30,30,30,,,,,1,1,135.53027829999337,138.53532100000302,139.5276439000154,0.9224740999925416,,,sub026,001,2025_Aug_07_0917,HaririTask_Ver2,3.0.1,None,
Shape,stimuli/vertical.bmp,stimuli/horizontal.bmp,stimuli/vertical.bmp,stimuli/EmptyFrame.bmp,stimuli/RedFrame.bmp,2,Shape,None,3,1,0,31,31,31,,,,,2,1,139.55148490000283,142.55254309999873,143.53809440002078,1.2321744000073522,,,sub026,001,2025_Aug_07_0917,HaririTask_Ver2,3.0.1,None,
Shape,stimuli/vertical.bmp,stimuli/vertical.bmp,stimuli/horizontal.bmp,stimuli/EmptyFrame.bmp,stimuli/RedFrame.bmp,1,Shape,None,3,1,0,32,32,32,,,,,1,1,143.56026810000185,146.5679472000047,147.55234540000674,0.9868856999964919,,,sub026,001,2025_Aug_07_0917,HaririTask_Ver2,3.0.1,None,
MatchFaces,stimuli/MatchFaces.bmp,stimuli/EmptyFace.bmp,stimuli/EmptyFace.bmp,stimuli/EmptyFrame.bmp,stimuli/EmptyFrame.bmp,Null,None,None,3,1,0,33,33,33,,,,,None,0,147.70608649999485,150.56960690001142,151.55740730001708,,,,sub026,001,2025_Aug_07_0917,HaririTask_Ver2,3.0.1,None,
Anger,stimuli/20M_AN_O.BMP,stimuli/34M_AN_O.BMP,stimuli/20M_AN_O.BMP,stimuli/EmptyFrame.bmp,stimuli/RedFrame.bmp,2,Anger,Male,3,1,0,34,34,34,,,,,2,1,151.6145661000046,154.59571520000463,155.577892900008,1.2592720999964513,,,sub026,001,2025_Aug_07_0917,HaririTask_Ver2,3.0.1,None,
Anger,stimuli/01F_AN_O.bmp,stimuli/19F_AN_O.BMP,stimuli/01F_AN_O.bmp,stimuli/EmptyFrame.bmp,stimuli/RedFrame.bmp,2,Anger,Female,3,1,0,35,35,35,,,,,2,1,155.609821799997,158.61240139999427,159.60029699999723,1.1055176999943797,,,sub026,001,2025_Aug_07_0917,HaririTask_Ver2,3.0.1,None,
Anger,stimuli/06F_AN_O.bmp,stimuli/15F_AN_O.BMP,stimuli/06F_AN_O.bmp,stimuli/EmptyFrame.bmp,stimuli/RedFrame.bmp,2,Anger,Female,3,1,0,36,36,36,,,,,2,1,159.6318040000042,162.62763560001622,163.62200699999812,0.903562299994519,,,sub026,001,2025_Aug_07_0917,HaririTask_Ver2,3.0.1,None,
Anger,stimuli/42M_AN_O.BMP,stimuli/42M_AN_O.BMP,stimuli/43M_AN_O.BMP,stimuli/EmptyFrame.bmp,stimuli/RedFrame.bmp,1,Anger,Male,3,1,0,37,37,37,,,,,1,1,163.65358760001254,166.65568270001677,167.63982670000405,1.170837699988624,,,sub026,001,2025_Aug_07_0917,HaririTask_Ver2,3.0.1,None,
Anger,stimuli/40M_AN_O.BMP,stimuli/41M_AN_O.BMP,stimuli/40M_AN_O.BMP,stimuli/EmptyFrame.bmp,stimuli/RedFrame.bmp,2,Anger,Male,3,1,0,38,38,38,,,,,2,1,167.66796550000436,170.66434879999724,171.65011630000663,0.7181198000034783,,,sub026,001,2025_Aug_07_0917,HaririTask_Ver2,3.0.1,None,
Anger,stimuli/08F_AN_O.BMP,stimuli/08F_AN_O.BMP,stimuli/13F_AN_O.BMP,stimuli/EmptyFrame.bmp,stimuli/RedFrame.bmp,1,Anger,Female,3,1,0,39,39,39,,,,,1,1,171.67986279999604,174.6728157000034,175.6684083,0.8032275000005029,,,sub026,001,2025_Aug_07_0917,HaririTask_Ver2,3.0.1,None,
Anger,stimuli/09F_AN_O.BMP,stimuli/12F_AN_O.BMP,stimuli/09F_AN_O.BMP,stimuli/EmptyFrame.bmp,stimuli/RedFrame.bmp,2,Anger,Female,3,1,0,40,40,40,,,,,2,1,175.6968257999979,178.7010459000012,179.6878568000102,0.7915513000043575,,,sub026,001,2025_Aug_07_0917,HaririTask_Ver2,3.0.1,None,
Anger,stimuli/34M_AN_O.BMP,stimuli/35M_AN_O.BMP,stimuli/34M_AN_O.BMP,stimuli/EmptyFrame.bmp,stimuli/RedFrame.bmp,2,Anger,Male,3,1,0,41,41,41,,,,,2,1,179.71801939999568,182.7126019000134,183.7056693000195,0.8498593000113033,,,sub026,001,2025_Aug_07_0917,HaririTask_Ver2,3.0.1,None,
Anger,stimuli/24M_AN_O.BMP,stimuli/24M_AN_O.BMP,stimuli/30M_AN_O.BMP,stimuli/EmptyFrame.bmp,stimuli/RedFrame.bmp,1,Anger,Male,3,1,0,42,42,42,,,,,1,1,183.73554449999938,186.7353688000003,187.7160142000066,1.285969999997178,,,sub026,001,2025_Aug_07_0917,HaririTask_Ver2,3.0.1,None,
Anger,stimuli/03F_AN_O.bmp,stimuli/03F_AN_O.bmp,stimuli/17F_AN_O.BMP,stimuli/EmptyFrame.bmp,stimuli/RedFrame.bmp,1,Anger,Female,3,1,0,43,43,43,,,,,1,1,187.74196350001148,190.75209470000118,191.72441580001032,0.903454299987061,,,sub026,001,2025_Aug_07_0917,HaririTask_Ver2,3.0.1,None,
MatchFaces,stimuli/MatchFaces.bmp,stimuli/EmptyFace.bmp,stimuli/EmptyFace.bmp,stimuli/EmptyFrame.bmp,stimuli/EmptyFrame.bmp,Null,None,None,3,1,0,44,44,44,,,,,None,0,191.91217260001577,194.73435760001303,195.72938760000397,,,,sub026,001,2025_Aug_07_0917,HaririTask_Ver2,3.0.1,None,
Happy,stimuli/06F_HA_O.bmp,stimuli/07F_HA_O.BMP,stimuli/06F_HA_O.bmp,stimuli/EmptyFrame.bmp,stimuli/RedFrame.bmp,2,Happy,Female,3,1,0,45,45,45,,,,,2,1,195.78588500001933,198.75977580001927,199.74411260001943,1.0654868000128772,,,sub026,001,2025_Aug_07_0917,HaririTask_Ver2,3.0.1,None,
Happy,stimuli/13F_HA_O.BMP,stimuli/13F_HA_O.BMP,stimuli/12F_HA_O.BMP,stimuli/EmptyFrame.bmp,stimuli/RedFrame.bmp,1,Happy,Female,3,1,0,46,46,46,,,,,1,1,199.7690111999982,202.76921620001667,203.76226740001584,1.07043990000966,,,sub026,001,2025_Aug_07_0917,HaririTask_Ver2,3.0.1,None,
Happy,stimuli/41M_HA_O.BMP,stimuli/41M_HA_O.BMP,stimuli/40M_HA_O.BMP,stimuli/EmptyFrame.bmp,stimuli/RedFrame.bmp,1,Happy,Male,3,1,0,47,47,47,,,,,1,1,203.7890275999962,206.798815200018,207.79359420001856,0.7940321000060067,,,sub026,001,2025_Aug_07_0917,HaririTask_Ver2,3.0.1,None,
Happy,stimuli/03F_HA_O.bmp,stimuli/05F_HA_O.bmp,stimuli/03F_HA_O.bmp,stimuli/EmptyFrame.bmp,stimuli/RedFrame.bmp,2,Happy,Female,3,1,0,48,48,48,,,,,2,1,207.82629490000545,210.8257913000125,211.80504229999497,0.9259702999843284,,,sub026,001,2025_Aug_07_0917,HaririTask_Ver2,3.0.1,None,
Happy,stimuli/24M_HA_O.BMP,stimuli/24M_HA_O.BMP,stimuli/25M_HA_O.BMP,stimuli/EmptyFrame.bmp,stimuli/RedFrame.bmp,1,Happy,Male,3,1,0,49,49,49,,,,,1,1,211.8344780000043,214.83881770001608,215.82577019999735,1.129967700020643,,,sub026,001,2025_Aug_07_0917,HaririTask_Ver2,3.0.1,None,
Happy,stimuli/19F_HA_O.BMP,stimuli/19F_HA_O.BMP,stimuli/18F_HA_O.BMP,stimuli/EmptyFrame.bmp,stimuli/RedFrame.bmp,1,Happy,Female,3,1,0,50,50,50,,,,,1,1,215.85821570002008,218.8517630000133,219.84381140000187,1.2825455000274815,,,sub026,001,2025_Aug_07_0917,HaririTask_Ver2,3.0.1,None,
Happy,stimuli/01F_HA_O.bmp,stimuli/01F_HA_O.bmp,stimuli/02F_HA_O.bmp,stimuli/EmptyFrame.bmp,stimuli/RedFrame.bmp,1,Happy,Female,3,1,0,51,51,51,,,,,1,1,219.87440770000103,222.88148280000314,223.86531290001585,0.8447084999934305,,,sub026,001,2025_Aug_07_0917,HaririTask_Ver2,3.0.1,None,
Happy,stimuli/22M_HA_O.BMP,stimuli/23M_HA_O.BMP,stimuli/22M_HA_O.BMP,stimuli/EmptyFrame.bmp,stimuli/RedFrame.bmp,2,Happy,Male,3,1,0,52,52,52,,,,,2,1,223.9006434000039,226.8908733999997,227.8859889000014,1.5294558000168763,,,sub026,001,2025_Aug_07_0917,HaririTask_Ver2,3.0.1,None,
Happy,stimuli/35M_HA_O.BMP,stimuli/34M_HA_O.BMP,stimuli/35M_HA_O.BMP,stimuli/EmptyFrame.bmp,stimuli/RedFrame.bmp,2,Happy,Male,3,1,0,53,53,53,,,,,2,1,227.9125518000219,230.91522610001266,231.89975529999356,1.100257000012789,,,sub026,001,2025_Aug_07_0917,HaririTask_Ver2,3.0.1,None,
Happy,stimuli/39M_HA_O.BMP,stimuli/38M_HA_O.BMP,stimuli/39M_HA_O.BMP,stimuli/EmptyFrame.bmp,stimuli/RedFrame.bmp,2,Happy,Male,3,1,0,54,54,54,,,,,2,1,231.92803229999845,234.93389680000837,235.9204675000219,1.1356832000019494,,,sub026,001,2025_Aug_07_0917,HaririTask_Ver2,3.0.1,None,
Match Shape,stimuli/MatchShapes.bmp,stimuli/EmptyFace.bmp,stimuli/EmptyFace.bmp,stimuli/EmptyFrame.bmp,stimuli/EmptyFrame.bmp,Null,None,None,3,1,0,55,55,55,,,,,None,0,235.9487184000027,238.9365744999959,239.93101359999855,,,,sub026,001,2025_Aug_07_0917,HaririTask_Ver2,3.0.1,None,
Shape,stimuli/horizontal.bmp,stimuli/horizontal.bmp,stimuli/vertical.bmp,stimuli/EmptyFrame.bmp,stimuli/RedFrame.bmp,1,Shape,None,3,1,0,56,56,56,,,,,1,1,239.96274440002162,242.96466480000527,243.95320489999722,1.452477099985117,,,sub026,001,2025_Aug_07_0917,HaririTask_Ver2,3.0.1,None,
Shape,stimuli/horizontal.bmp,stimuli/horizontal.bmp,stimuli/circle.bmp,stimuli/EmptyFrame.bmp,stimuli/RedFrame.bmp,1,Shape,None,3,1,0,57,57,57,,,,,1,1,243.97680540001602,246.98530130001018,247.96459390001837,0.7916802999970969,,,sub026,001,2025_Aug_07_0917,HaririTask_Ver2,3.0.1,None,
Shape,stimuli/circle.bmp,stimuli/vertical.bmp,stimuli/circle.bmp,stimuli/EmptyFrame.bmp,stimuli/RedFrame.bmp,2,Shape,None,3,1,0,58,58,58,,,,,2,1,247.9908734000055,250.9912346000201,251.97860760000185,0.9814044000231661,,,sub026,001,2025_Aug_07_0917,HaririTask_Ver2,3.0.1,None,
Shape,stimuli/vertical.bmp,stimuli/vertical.bmp,stimuli/circle.bmp,stimuli/EmptyFrame.bmp,stimuli/RedFrame.bmp,1,Shape,None,3,1,0,59,59,59,,,,,1,1,252.00438210001448,255.010110800009,256.0011984000157,0.9444503000122495,,,sub026,001,2025_Aug_07_0917,HaririTask_Ver2,3.0.1,None,
Shape,stimuli/horizontal.bmp,stimuli/horizontal.bmp,stimuli/circle.bmp,stimuli/EmptyFrame.bmp,stimuli/RedFrame.bmp,1,Shape,None,3,1,0,60,60,60,,,,,1,1,256.02759350000997,259.02892830001656,260.01902870001504,1.2603641000168864,,,sub026,001,2025_Aug_07_0917,HaririTask_Ver2,3.0.1,None,
Shape,stimuli/vertical.bmp,stimuli/vertical.bmp,stimuli/circle.bmp,stimuli/EmptyFrame.bmp,stimuli/RedFrame.bmp,1,Shape,None,3,1,0,61,61,61,,,,,1,1,260.04440820001764,263.05063500002143,264.03949630001443,0.7395376000204124,,,sub026,001,2025_Aug_07_0917,HaririTask_Ver2,3.0.1,None,
Shape,stimuli/horizontal.bmp,stimuli/circle.bmp,stimuli/horizontal.bmp,stimuli/EmptyFrame.bmp,stimuli/RedFrame.bmp,2,Shape,None,3,1,0,62,62,62,,,,,2,1,264.0653307000175,267.07106220000423,268.0505738000211,0.6401483999798074,,,sub026,001,2025_Aug_07_0917,HaririTask_Ver2,3.0.1,None,
Shape,stimuli/circle.bmp,stimuli/circle.bmp,stimuli/horizontal.bmp,stimuli/EmptyFrame.bmp,stimuli/RedFrame.bmp,1,Shape,None,3,1,0,63,63,63,,,,,1,1,268.07169989999966,271.0769322999986,272.0608995000075,1.099196099996334,,,sub026,001,2025_Aug_07_0917,HaririTask_Ver2,3.0.1,None,
Shape,stimuli/circle.bmp,stimuli/horizontal.bmp,stimuli/circle.bmp,stimuli/EmptyFrame.bmp,stimuli/RedFrame.bmp,2,Shape,None,3,1,0,64,64,64,,,,,2,1,272.08610990000307,275.0866692000127,276.07272530000773,0.7027061000117101,,,sub026,001,2025_Aug_07_0917,HaririTask_Ver2,3.0.1,None,
Shape,stimuli/vertical.bmp,stimuli/vertical.bmp,stimuli/horizontal.bmp,stimuli/EmptyFrame.bmp,stimuli/RedFrame.bmp,1,Shape,None,3,1,0,65,65,65,,,,,1,1,276.0924747000099,279.09850370002096,280.0905172000057,1.3064847000059672,,,sub026,001,2025_Aug_07_0917,HaririTask_Ver2,3.0.1,None,
MatchFaces,stimuli/MatchFaces.bmp,stimuli/EmptyFace.bmp,stimuli/EmptyFace.bmp,stimuli/EmptyFrame.bmp,stimuli/EmptyFrame.bmp,Null,None,None,3,1,0,66,66,66,,,,,None,0,280.26290460000746,283.101828200015,284.09826100000646,,,,sub026,001,2025_Aug_07_0917,HaririTask_Ver2,3.0.1,None,
Neutral,stimuli/20M_NE_C.BMP,stimuli/21M_NE_C.BMP,stimuli/20M_NE_C.BMP,stimuli/EmptyFrame.bmp,stimuli/RedFrame.bmp,2,Neutral,Male,3,1,0,67,67,67,,,,,2,1,284.17492730001686,287.1395044999954,288.1159396000148,1.4206118000147399,,,sub026,001,2025_Aug_07_0917,HaririTask_Ver2,3.0.1,None,
Neutral,stimuli/01F_NE_C.bmp,stimuli/01F_NE_C.bmp,stimuli/02F_NE_C.bmp,stimuli/EmptyFrame.bmp,stimuli/RedFrame.bmp,1,Neutral,Female,3,1,0,68,68,68,,,,,1,1,288.15113820001716,291.1625025999965,292.1357252000016,1.4475953000073787,,,sub026,001,2025_Aug_07_0917,HaririTask_Ver2,3.0.1,None,
Neutral,stimuli/22M_NE_C.BMP,stimuli/23M_NE_C.BMP,stimuli/22M_NE_C.BMP,stimuli/EmptyFrame.bmp,stimuli/RedFrame.bmp,2,Neutral,Male,3,1,0,69,69,69,,,,,2,1,292.1670482000045,295.15725190000376,296.147825299995,1.3175038000044879,,,sub026,001,2025_Aug_07_0917,HaririTask_Ver2,3.0.1,None,
Neutral,stimuli/24M_NE_C.BMP,stimuli/24M_NE_C.BMP,stimuli/25M_NE_C.BMP,stimuli/EmptyFrame.bmp,stimuli/RedFrame.bmp,1,Neutral,Male,3,1,0,70,70,70,,,,,1,1,296.1719987000106,299.18558920000214,300.1580479000113,0.8749476999801118,,,sub026,001,2025_Aug_07_0917,HaririTask_Ver2,3.0.1,None,
Neutral,stimuli/03F_NE_C.bmp,stimuli/05F_NE_C.bmp,stimuli/03F_NE_C.bmp,stimuli/EmptyFrame.bmp,stimuli/RedFrame.bmp,2,Neutral,Female,3,1,0,71,71,71,,,,,2,1,300.1886968000035,303.18598110001767,304.1695424000209,1.3798080999986269,,,sub026,001,2025_Aug_07_0917,HaririTask_Ver2,3.0.1,None,
Neutral,stimuli/26M_NE_C.BMP,stimuli/26M_NE_C.BMP,stimuli/27M_NE_C.BMP,stimuli/EmptyFrame.bmp,stimuli/RedFrame.bmp,1,Neutral,Male,3,1,0,72,72,72,,,,,1,1,304.19289999999455,307.2026419000176,308.1860260000103,1.0065384000190534,,,sub026,001,2025_Aug_07_0917,HaririTask_Ver2,3.0.1,None,
Neutral,stimuli/06F_NE_C.bmp,stimuli/07F_NE_C.BMP,stimuli/06F_NE_C.bmp,stimuli/EmptyFrame.bmp,stimuli/RedFrame.bmp,2,Neutral,Female,3,1,0,73,73,73,,,,,2,1,308.21549740000046,311.21094930000254,312.1972820000083,1.6192909000092186,,,sub026,001,2025_Aug_07_0917,HaririTask_Ver2,3.0.1,None,
Neutral,stimuli/08F_NE_C.BMP,stimuli/08F_NE_C.BMP,stimuli/09F_NE_C.BMP,stimuli/EmptyFrame.bmp,stimuli/RedFrame.bmp,1,Neutral,Female,3,1,0,74,74,74,,,,,1,1,312.218900900014,315.2273742000107,316.21397040001466,0.8693620999983978,,,sub026,001,2025_Aug_07_0917,HaririTask_Ver2,3.0.1,None,
Neutral,stimuli/28M_NE_C.BMP,stimuli/29M_NE_C.BMP,stimuli/28M_NE_C.BMP,stimuli/EmptyFrame.bmp,stimuli/RedFrame.bmp,2,Neutral,Male,3,1,0,75,75,75,,,,,2,1,316.23887230001856,319.2502019999956,320.232348599995,0.8655017999990378,,,sub026,001,2025_Aug_07_0917,HaririTask_Ver2,3.0.1,None,
Neutral,stimuli/10F_NE_C.BMP,stimuli/10F_NE_C.BMP,stimuli/06F_NE_C.bmp,stimuli/EmptyFrame.bmp,stimuli/RedFrame.bmp,1,Neutral,Female,3,1,0,76,76,76,,,,,1,1,320.25863749999553,323.2616942000168,324.2506540000031,0.8071130000171252,,,sub026,001,2025_Aug_07_0917,HaririTask_Ver2,3.0.1,None,
MatchFaces,stimuli/MatchFaces.bmp,stimuli/EmptyFace.bmp,stimuli/EmptyFace.bmp,stimuli/EmptyFrame.bmp,stimuli/EmptyFrame.bmp,Null,None,None,3,1,0,77,77,77,,,,,None,0,324.4487327999959,327.26188160001766,328.251611100015,,,,sub026,001,2025_Aug_07_0917,HaririTask_Ver2,3.0.1,None,
Happy,stimuli/28M_HA_O.BMP,stimuli/29M_HA_O.BMP,stimuli/28M_HA_O.BMP,stimuli/EmptyFrame.bmp,stimuli/RedFrame.bmp,2,Happy,Male,3,1,0,78,78,78,,,,,2,1,328.3060732000158,331.28657190001104,332.2629555000167,0.8298931999888737,,,sub026,001,2025_Aug_07_0917,HaririTask_Ver2,3.0.1,None,
Happy,stimuli/10F_HA_O.BMP,stimuli/10F_HA_O.BMP,stimuli/06F_HA_O.bmp,stimuli/EmptyFrame.bmp,stimuli/RedFrame.bmp,1,Happy,Female,3,1,0,79,79,79,,,,,1,1,332.2896671000053,335.30424180001137,336.27950110001257,0.7316992999985814,,,sub026,001,2025_Aug_07_0917,HaririTask_Ver2,3.0.1,None,
Happy,stimuli/26M_HA_O.BMP,stimuli/26M_HA_O.BMP,stimuli/27M_HA_O.BMP,stimuli/EmptyFrame.bmp,stimuli/RedFrame.bmp,1,Happy,Male,3,1,0,80,80,80,,,,,1,1,336.3049975000031,339.31205030001,340.2915713000111,1.3996160000097007,,,sub026,001,2025_Aug_07_0917,HaririTask_Ver2,3.0.1,None,
Happy,stimuli/20M_HA_O.BMP,stimuli/21M_HA_O.BMP,stimuli/20M_HA_O.BMP,stimuli/EmptyFrame.bmp,stimuli/RedFrame.bmp,2,Happy,Male,3,1,0,81,81,81,,,,,2,1,340.31785890000174,343.32044640000095,344.3117507999996,1.4352284999913536,,,sub026,001,2025_Aug_07_0917,HaririTask_Ver2,3.0.1,None,
Happy,stimuli/37M_HA_O.BMP,stimuli/37M_HA_O.BMP,stimuli/36M_HA_O.BMP,stimuli/EmptyFrame.bmp,stimuli/RedFrame.bmp,1,Happy,Male,3,1,0,82,82,82,,,,,1,1,344.34048810001696,347.3382715000189,348.32651529999566,0.8974712000053842,,,sub026,001,2025_Aug_07_0917,HaririTask_Ver2,3.0.1,None,
Happy,stimuli/43M_HA_O.BMP,stimuli/42M_HA_O.BMP,stimuli/43M_HA_O.BMP,stimuli/EmptyFrame.bmp,stimuli/RedFrame.bmp,2,Happy,Male,3,1,0,83,83,83,,,,,2,1,348.35516050001024,351.35412530001486,352.3434810000181,1.0341003000212368,,,sub026,001,2025_Aug_07_0917,HaririTask_Ver2,3.0.1,None,
Happy,stimuli/11F_HA_O.BMP,stimuli/10F_HA_O.BMP,stimuli/11F_HA_O.BMP,stimuli/EmptyFrame.bmp,stimuli/RedFrame.bmp,2,Happy,Female,3,1,0,84,84,84,,,,,2,1,352.3679497000121,355.3741439000005,356.35779120001826,0.6985560999892186,,,sub026,001,2025_Aug_07_0917,HaririTask_Ver2,3.0.1,None,
Happy,stimuli/17F_HA_O.BMP,stimuli/16F_HA_O.BMP,stimuli/17F_HA_O.BMP,stimuli/EmptyFrame.bmp,stimuli/RedFrame.bmp,2,Happy,Female,3,1,0,85,85,85,,,,,2,1,356.38347190001514,359.37973950000014,360.37545910000335,0.8959369999938644,,,sub026,001,2025_Aug_07_0917,HaririTask_Ver2,3.0.1,None,
Happy,stimuli/15F_HA_O.BMP,stimuli/15F_HA_O.BMP,stimuli/14F_HA_O.BMP,stimuli/EmptyFrame.bmp,stimuli/RedFrame.bmp,1,Happy,Female,3,1,0,86,86,86,,,,,1,1,360.4001979000168,363.40116690000286,364.38653879999765,0.8973832999763545,,,sub026,001,2025_Aug_07_0917,HaririTask_Ver2,3.0.1,None,
Happy,stimuli/08F_HA_O.BMP,stimuli/08F_HA_O.BMP,stimuli/09F_HA_O.BMP,stimuli/EmptyFrame.bmp,stimuli/RedFrame.bmp,1,Happy,Female,3,1,0,87,87,87,,,,,1,1,364.4144074000069,367.41750760001014,368.4091580999957,2.9663746999867726,,,sub026,001,2025_Aug_07_0917,HaririTask_Ver2,3.0.1,None,
MatchFaces,stimuli/MatchFaces.bmp,stimuli/EmptyFace.bmp,stimuli/EmptyFace.bmp,stimuli/EmptyFrame.bmp,stimuli/EmptyFrame.bmp,Null,None,None,3,1,0,88,88,88,,,,,None,0,368.6191197000153,371.41557750001084,372.41629360002116,,,,sub026,001,2025_Aug_07_0917,HaririTask_Ver2,3.0.1,None,
Fear,stimuli/34M_FE_O.BMP,stimuli/34M_FE_O.BMP,stimuli/33M_FE_O.BMP,stimuli/EmptyFrame.bmp,stimuli/RedFrame.bmp,1,Fear,Male,3,1,0,89,89,89,,,,,1,1,372.46878870000364,375.4541035000002,376.4412181999942,1.0149755000020377,,,sub026,001,2025_Aug_07_0917,HaririTask_Ver2,3.0.1,None,
Fear,stimuli/28M_FE_O.BMP,stimuli/28M_FE_O.BMP,stimuli/25M_FE_O.BMP,stimuli/EmptyFrame.bmp,stimuli/RedFrame.bmp,1,Fear,Male,3,1,0,90,90,90,,,,,1,1,376.47210579999955,379.47002259999863,380.4606541999965,0.8303587000118569,,,sub026,001,2025_Aug_07_0917,HaririTask_Ver2,3.0.1,None,
Fear,stimuli/11F_FE_O.BMP,stimuli/10F_FE_O.BMP,stimuli/11F_FE_O.BMP,stimuli/EmptyFrame.bmp,stimuli/RedFrame.bmp,2,Fear,Female,3,1,0,91,91,91,,,,,2,1,380.48174230000586,383.4918069000123,384.4755664000113,0.6865461000124924,,,sub026,001,2025_Aug_07_0917,HaririTask_Ver2,3.0.1,None,
Fear,stimuli/27M_FE_O.BMP,stimuli/26M_FE_O.BMP,stimuli/27M_FE_O.BMP,stimuli/EmptyFrame.bmp,stimuli/RedFrame.bmp,2,Fear,Male,3,1,0,92,92,92,,,,,2,1,384.50291229999857,387.5106756000023,388.4889993999968,0.765550300013274,,,sub026,001,2025_Aug_07_0917,HaririTask_Ver2,3.0.1,None,
Fear,stimuli/11F_FE_O.BMP,stimuli/12F_FE_O.BMP,stimuli/11F_FE_O.BMP,stimuli/EmptyFrame.bmp,stimuli/RedFrame.bmp,2,Fear,Female,3,1,0,93,93,93,,,,,2,1,388.5175589999999,391.5184653000033,392.50956160001806,0.6675263000070117,,,sub026,001,2025_Aug_07_0917,HaririTask_Ver2,3.0.1,None,
Fear,stimuli/31M_FE_O.BMP,stimuli/31M_FE_O.BMP,stimuli/38M_FE_O.BMP,stimuli/EmptyFrame.bmp,stimuli/RedFrame.bmp,1,Fear,Male,3,1,0,94,94,94,,,,,1,1,392.5392183000222,395.54770590001135,396.52211530000204,0.9661271999939345,,,sub026,001,2025_Aug_07_0917,HaririTask_Ver2,3.0.1,None,
Fear,stimuli/29M_FE_O.BMP,stimuli/29M_FE_O.BMP,stimuli/24M_FE_O.BMP,stimuli/EmptyFrame.bmp,stimuli/RedFrame.bmp,1,Fear,Male,3,1,0,95,95,95,,,,,1,1,396.5476766000211,399.54810750001343,400.5415625000023,0.7641945999930613,,,sub026,001,2025_Aug_07_0917,HaririTask_Ver2,3.0.1,None,
Fear,stimuli/25M_FE_O.BMP,stimuli/29M_FE_O.BMP,stimuli/25M_FE_O.BMP,stimuli/EmptyFrame.bmp,stimuli/RedFrame.bmp,2,Fear,Male,3,1,0,96,96,96,,,,,2,1,400.5665613000165,403.56627619999927,404.5571073000028,0.7217122000001837,,,sub026,001,2025_Aug_07_0917,HaririTask_Ver2,3.0.1,None,
Fear,stimuli/15F_FE_O.BMP,stimuli/18F_FE_O.BMP,stimuli/15F_FE_O.BMP,stimuli/EmptyFrame.bmp,stimuli/RedFrame.bmp,2,Fear,Female,3,1,0,97,97,97,,,,,2,1,404.58523550000973,407.59098460001405,408.570635400014,0.9892876999801956,,,sub026,001,2025_Aug_07_0917,HaririTask_Ver2,3.0.1,None,
Fear,stimuli/09F_FE_O.BMP,stimuli/09F_FE_O.BMP,stimuli/12F_FE_O.BMP,stimuli/EmptyFrame.bmp,stimuli/RedFrame.bmp,1,Fear,Female,3,1,0,98,98,98,,,,,1,1,408.5949104000174,411.59309390001,412.5871044000087,0.7588793000031728,,,sub026,001,2025_Aug_07_0917,HaririTask_Ver2,3.0.1,None,
MatchFaces,stimuli/MatchFaces.bmp,stimuli/EmptyFace.bmp,stimuli/EmptyFace.bmp,stimuli/EmptyFrame.bmp,stimuli/EmptyFrame.bmp,Null,None,None,3,1,0,99,99,99,,,,,None,0,412.7402206000115,415.59390490001533,416.5884764000075,,,,sub026,001,2025_Aug_07_0917,HaririTask_Ver2,3.0.1,None,
Anger,stimuli/23M_AN_O.BMP,stimuli/23M_AN_O.BMP,stimuli/31M_AN_O.BMP,stimuli/EmptyFrame.bmp,stimuli/RedFrame.bmp,1,Anger,Male,3,1,0,100,100,100,,,,,1,1,416.63949480000883,419.61226920000627,420.6093699000194,1.3614852000027895,,,sub026,001,2025_Aug_07_0917,HaririTask_Ver2,3.0.1,None,
Anger,stimuli/36M_AN_O.BMP,stimuli/37M_AN_O.BMP,stimuli/36M_AN_O.BMP,stimuli/EmptyFrame.bmp,stimuli/RedFrame.bmp,2,Anger,Male,3,1,0,101,101,101,,,,,2,1,420.6344885000144,423.63599680000334,424.6358365000051,0.901856400014367,,,sub026,001,2025_Aug_07_0917,HaririTask_Ver2,3.0.1,None,
Anger,stimuli/38M_AN_O.BMP,stimuli/39M_AN_O.BMP,stimuli/38M_AN_O.BMP,stimuli/EmptyFrame.bmp,stimuli/RedFrame.bmp,2,Anger,Male,3,1,0,102,102,102,,,,,2,1,424.66616170000634,427.66681470000185,428.6489148999972,0.5661111999943387,,,sub026,001,2025_Aug_07_0917,HaririTask_Ver2,3.0.1,None,
Anger,stimuli/02f_an_o.bmp,stimuli/18F_AN_O.BMP,stimuli/02f_an_o.bmp,stimuli/EmptyFrame.bmp,stimuli/RedFrame.bmp,2,Anger,Female,3,1,0,103,103,103,,,,,2,1,428.682427599997,431.6805278999964,432.6669295000029,0.620934100006707,,,sub026,001,2025_Aug_07_0917,HaririTask_Ver2,3.0.1,None,
Anger,stimuli/22M_AN_O.BMP,stimuli/32M_AN_O.BMP,stimuli/22M_AN_O.BMP,stimuli/EmptyFrame.bmp,stimuli/RedFrame.bmp,2,Anger,Male,3,1,0,104,104,104,,,,,2,1,432.6962044000102,435.69692240000586,436.684789299994,0.8187081999785732,,,sub026,001,2025_Aug_07_0917,HaririTask_Ver2,3.0.1,None,
Anger,stimuli/12F_AN_O.BMP,stimuli/12F_AN_O.BMP,stimuli/13F_AN_O.BMP,stimuli/EmptyFrame.bmp,stimuli/RedFrame.bmp,1,Anger,Female,3,1,0,105,105,105,,,,,1,1,436.71044530000654,439.7177950000041,440.69451550001395,0.7536466000019573,,,sub026,001,2025_Aug_07_0917,HaririTask_Ver2,3.0.1,None,
Anger,stimuli/05F_AN_O.bmp,stimuli/05F_AN_O.bmp,stimuli/16F_AN_O.BMP,stimuli/EmptyFrame.bmp,stimuli/RedFrame.bmp,1,Anger,Female,3,1,0,106,106,106,,,,,1,1,440.72718800001894,443.72472100000596,444.71641510000336,0.8140883000160102,,,sub026,001,2025_Aug_07_0917,HaririTask_Ver2,3.0.1,None,
Anger,stimuli/21M_AN_O.BMP,stimuli/21M_AN_O.BMP,stimuli/33M_AN_O.BMP,stimuli/EmptyFrame.bmp,stimuli/RedFrame.bmp,1,Anger,Male,3,1,0,107,107,107,,,,,1,1,444.74881049999385,447.7491949000105,448.7270295000053,0.8130723999929614,,,sub026,001,2025_Aug_07_0917,HaririTask_Ver2,3.0.1,None,
Anger,stimuli/07F_AN_O.BMP,stimuli/07F_AN_O.BMP,stimuli/14F_AN_O.BMP,stimuli/EmptyFrame.bmp,stimuli/RedFrame.bmp,1,Anger,Female,3,1,0,108,108,108,,,,,1,1,448.75502250000136,451.75414490001276,452.7449104000116,1.1755882000143174,,,sub026,001,2025_Aug_07_0917,HaririTask_Ver2,3.0.1,None,
Anger,stimuli/10F_AN_O.BMP,stimuli/10F_AN_O.BMP,stimuli/11F_AN_O.BMP,stimuli/EmptyFrame.bmp,stimuli/RedFrame.bmp,1,Anger,Female,3,1,0,109,109,109,,,,,1,1,452.77564430001075,455.7725408000115,456.7648188000021,0.991477900010068,,,sub026,001,2025_Aug_07_0917,HaririTask_Ver2,3.0.1,None,
,,,,,,,,,,,,,,,,,,,,,,,,,456.79116600001,471.77038910001284,,,,,,,
