TrialType,Top,Left,Right,EmptyFrame,SelectedFrame,Correct,Emotion,Gender,TrialLength,FixationLength,n,GCFaceStartTime_mean,GCFaceStartTime_raw,GCFaceStartTime_std,GCPostFaceFixationEndTime_mean,GCPostFaceFixationEndTime_raw,GCPostFaceFixationEndTime_std,GCPostFaceFixationStartTime_mean,GCPostFaceFixationStartTime_raw,GCPostFaceFixationStartTime_std,key_resp_trial.corr_mean,key_resp_trial.corr_raw,key_resp_trial.corr_std,key_resp_trial.keys_raw,key_resp_trial.rt_mean,key_resp_trial.rt_raw,key_resp_trial.rt_std,order
MatchFaces,stimuli/MatchFaces.bmp,stimuli/EmptyFace.bmp,stimuli/EmptyFace.bmp,stimuli/EmptyFrame.bmp,stimuli/EmptyFrame.bmp,Null,None,None,3,1,1.0,15.372221946716309,15.372221946716309,0.0,19.054105758666992,19.054105758666992,0.0,18.07249641418457,18.07249641418457,0.0,0.0,0.0,0.0,,,,,0.0
Fear,stimuli/23M_FE_O.BMP,stimuli/23M_FE_O.BMP,stimuli/24M_FE_O.BMP,stimuli/EmptyFrame.bmp,stimuli/RedFrame.bmp,1,Fear,Male,3,1,1.0,19.278371810913086,19.278371810913086,0.0,23.0743408203125,23.0743408203125,0.0,22.089767456054688,22.089767456054688,0.0,1.0,1.0,0.0,'1',1.2581323385238647,1.2581323385238647,0.0,1.0
Fear,stimuli/19F_FE_O.BMP,stimuli/18F_FE_O.BMP,stimuli/19F_FE_O.BMP,stimuli/EmptyFrame.bmp,stimuli/RedFrame.bmp,2,Fear,Female,3,1,1.0,23.106216430664062,23.106216430664062,0.0,27.09166145324707,27.09166145324707,0.0,26.09906578063965,26.09906578063965,0.0,1.0,1.0,0.0,'2',0.7395774722099304,0.7395774722099304,0.0,2.0
Fear,stimuli/17F_FE_O.BMP,stimuli/17F_FE_O.BMP,stimuli/16F_FE_O.BMP,stimuli/EmptyFrame.bmp,stimuli/RedFrame.bmp,1,Fear,Female,3,1,1.0,27.122880935668945,27.122880935668945,0.0,31.11603546142578,31.11603546142578,0.0,30.12590980529785,30.12590980529785,0.0,1.0,1.0,0.0,'1',0.6433848738670349,0.6433848738670349,0.0,3.0
Fear,stimuli/21M_FE_O.BMP,stimuli/21M_FE_O.BMP,stimuli/22M_FE_O.BMP,stimuli/EmptyFrame.bmp,stimuli/RedFrame.bmp,1,Fear,Male,3,1,1.0,31.14051055908203,31.14051055908203,0.0,35.13645553588867,35.13645553588867,0.0,34.179264068603516,34.179264068603516,0.0,1.0,1.0,0.0,'1',0.6070536971092224,0.6070536971092224,0.0,4.0
Fear,stimuli/09F_FE_O.BMP,stimuli/07F_FE_O.BMP,stimuli/09F_FE_O.BMP,stimuli/EmptyFrame.bmp,stimuli/RedFrame.bmp,2,Fear,Female,3,1,1.0,35.16786193847656,35.16786193847656,0.0,39.1473388671875,39.1473388671875,0.0,38.16557693481445,38.16557693481445,0.0,1.0,1.0,0.0,'2',0.5873661041259766,0.5873661041259766,0.0,5.0
Fear,stimuli/08F_FE_O.BMP,stimuli/13F_FE_O.BMP,stimuli/08F_FE_O.BMP,stimuli/EmptyFrame.bmp,stimuli/RedFrame.bmp,2,Fear,Female,3,1,1.0,39.17325210571289,39.17325210571289,0.0,43.186790466308594,43.186790466308594,0.0,42.18653869628906,42.18653869628906,0.0,1.0,1.0,0.0,'2',0.7271848917007446,0.7271848917007446,0.0,6.0
Fear,stimuli/07F_FE_O.BMP,stimuli/07F_FE_O.BMP,stimuli/14F_FE_O.BMP,stimuli/EmptyFrame.bmp,stimuli/RedFrame.bmp,1,Fear,Female,3,1,1.0,43.22920227050781,43.22920227050781,0.0,47.19918441772461,47.19918441772461,0.0,46.232940673828125,46.232940673828125,0.0,1.0,1.0,0.0,'1',0.7357394099235535,0.7357394099235535,0.0,7.0
Fear,stimuli/26M_FE_O.BMP,stimuli/26M_FE_O.BMP,stimuli/28M_FE_O.BMP,stimuli/EmptyFrame.bmp,stimuli/RedFrame.bmp,1,Fear,Male,3,1,1.0,47.235450744628906,47.235450744628906,0.0,51.219112396240234,51.219112396240234,0.0,50.2219123840332,50.2219123840332,0.0,1.0,1.0,0.0,'1',0.6353535056114197,0.6353535056114197,0.0,8.0
Fear,stimuli/10F_FE_O.BMP,stimuli/11F_FE_O.BMP,stimuli/10F_FE_O.BMP,stimuli/EmptyFrame.bmp,stimuli/RedFrame.bmp,2,Fear,Female,3,1,1.0,51.24687194824219,51.24687194824219,0.0,55.23476791381836,55.23476791381836,0.0,54.24861145019531,54.24861145019531,0.0,1.0,1.0,0.0,'2',0.5353183150291443,0.5353183150291443,0.0,9.0
Fear,stimuli/29M_FE_O.BMP,stimuli/30M_FE_O.BMP,stimuli/29M_FE_O.BMP,stimuli/EmptyFrame.bmp,stimuli/RedFrame.bmp,2,Fear,Male,3,1,1.0,55.25947952270508,55.25947952270508,0.0,59.247840881347656,59.247840881347656,0.0,58.26495361328125,58.26495361328125,0.0,1.0,1.0,0.0,'2',0.6592866778373718,0.6592866778373718,0.0,10.0
MatchFaces,stimuli/MatchFaces.bmp,stimuli/EmptyFace.bmp,stimuli/EmptyFace.bmp,stimuli/EmptyFrame.bmp,stimuli/EmptyFrame.bmp,Null,None,None,3,1,1.0,59.53593444824219,59.53593444824219,0.0,63.253997802734375,63.253997802734375,0.0,62.255191802978516,62.255191802978516,0.0,0.0,0.0,0.0,,,,,11.0
Neutral,stimuli/07F_NE_C.BMP,stimuli/07F_NE_C.BMP,stimuli/14F_NE_C.BMP,stimuli/EmptyFrame.bmp,stimuli/RedFrame.bmp,1,Neutral,Female,3,1,1.0,63.331668853759766,63.331668853759766,0.0,67.27105712890625,67.27105712890625,0.0,66.28346252441406,66.28346252441406,0.0,1.0,1.0,0.0,'1',0.601549506187439,0.601549506187439,0.0,12.0
Neutral,stimuli/25M_NE_C.BMP,stimuli/29M_NE_C.BMP,stimuli/25M_NE_C.BMP,stimuli/EmptyFrame.bmp,stimuli/RedFrame.bmp,2,Neutral,Male,3,1,1.0,67.3001480102539,67.3001480102539,0.0,71.28826904296875,71.28826904296875,0.0,70.299560546875,70.299560546875,0.0,1.0,1.0,0.0,'2',0.7013909220695496,0.7013909220695496,0.0,13.0
Neutral,stimuli/26M_NE_C.BMP,stimuli/26M_NE_C.BMP,stimuli/28M_NE_C.BMP,stimuli/EmptyFrame.bmp,stimuli/RedFrame.bmp,1,Neutral,Male,3,1,1.0,71.31578063964844,71.31578063964844,0.0,75.30302429199219,75.30302429199219,0.0,74.31481170654297,74.31481170654297,0.0,1.0,1.0,0.0,'1',0.5929160118103027,0.5929160118103027,0.0,14.0
Neutral,stimuli/08F_NE_C.BMP,stimuli/13F_NE_C.BMP,stimuli/08F_NE_C.BMP,stimuli/EmptyFrame.bmp,stimuli/RedFrame.bmp,2,Neutral,Female,3,1,1.0,75.32981872558594,75.32981872558594,0.0,79.32667541503906,79.32667541503906,0.0,78.3338851928711,78.3338851928711,0.0,1.0,1.0,0.0,'2',0.6031062006950378,0.6031062006950378,0.0,15.0
Neutral,stimuli/09F_NE_C.BMP,stimuli/09F_NE_C.BMP,stimuli/12F_NE_C.BMP,stimuli/EmptyFrame.bmp,stimuli/RedFrame.bmp,1,Neutral,Female,3,1,1.0,79.35330963134766,79.35330963134766,0.0,83.33992004394531,83.33992004394531,0.0,82.35247802734375,82.35247802734375,0.0,1.0,1.0,0.0,'1',0.5790594816207886,0.5790594816207886,0.0,16.0
Neutral,stimuli/27M_NE_C.BMP,stimuli/26M_NE_C.BMP,stimuli/27M_NE_C.BMP,stimuli/EmptyFrame.bmp,stimuli/RedFrame.bmp,2,Neutral,Male,3,1,1.0,83.36421203613281,83.36421203613281,0.0,87.36438751220703,87.36438751220703,0.0,86.37136840820312,86.37136840820312,0.0,1.0,1.0,0.0,'2',0.5430958271026611,0.5430958271026611,0.0,17.0
Neutral,stimuli/28M_NE_C.BMP,stimuli/28M_NE_C.BMP,stimuli/25M_NE_C.BMP,stimuli/EmptyFrame.bmp,stimuli/RedFrame.bmp,1,Neutral,Male,3,1,1.0,87.39656829833984,87.39656829833984,0.0,91.37811279296875,91.37811279296875,0.0,90.39268493652344,90.39268493652344,0.0,1.0,1.0,0.0,'1',0.7373530864715576,0.7373530864715576,0.0,18.0
Neutral,stimuli/10F_NE_C.BMP,stimuli/11F_NE_C.BMP,stimuli/10F_NE_C.BMP,stimuli/EmptyFrame.bmp,stimuli/RedFrame.bmp,2,Neutral,Female,3,1,1.0,91.40483856201172,91.40483856201172,0.0,95.40205383300781,95.40205383300781,0.0,94.4112777709961,94.4112777709961,0.0,1.0,1.0,0.0,'2',0.5468248128890991,0.5468248128890991,0.0,19.0
Neutral,stimuli/29M_NE_C.BMP,stimuli/29M_NE_C.BMP,stimuli/24M_NE_C.BMP,stimuli/EmptyFrame.bmp,stimuli/RedFrame.bmp,1,Neutral,Male,3,1,1.0,95.43350982666016,95.43350982666016,0.0,99.41375732421875,99.41375732421875,0.0,98.45182037353516,98.45182037353516,0.0,1.0,1.0,0.0,'1',0.6925494074821472,0.6925494074821472,0.0,20.0
Neutral,stimuli/11F_NE_C.BMP,stimuli/10F_NE_C.BMP,stimuli/11F_NE_C.BMP,stimuli/EmptyFrame.bmp,stimuli/RedFrame.bmp,2,Neutral,Female,3,1,1.0,99.43362426757812,99.43362426757812,0.0,103.44906616210938,103.44906616210938,0.0,102.4442367553711,102.4442367553711,0.0,1.0,1.0,0.0,'2',0.5940284729003906,0.5940284729003906,0.0,21.0
MatchShape,stimuli/MatchShapes.bmp,stimuli/EmptyFace.bmp,stimuli/EmptyFace.bmp,stimuli/EmptyFrame.bmp,stimuli/EmptyFrame.bmp,Null,None,None,3,1,1.0,103.4904556274414,103.4904556274414,0.0,107.45083618164062,107.45083618164062,0.0,106.46310424804688,106.46310424804688,0.0,0.0,0.0,0.0,,,,,22.0
Shape,stimuli/circle.bmp,stimuli/vertical.bmp,stimuli/circle.bmp,stimuli/EmptyFrame.bmp,stimuli/RedFrame.bmp,2,Shape,None,3,1,1.0,107.49967956542969,107.49967956542969,0.0,111.46935272216797,111.46935272216797,0.0,110.4728775024414,110.4728775024414,0.0,1.0,1.0,0.0,'2',0.5515403747558594,0.5515403747558594,0.0,23.0
Shape,stimuli/horizontal.bmp,stimuli/circle.bmp,stimuli/horizontal.bmp,stimuli/EmptyFrame.bmp,stimuli/RedFrame.bmp,2,Shape,None,3,1,1.0,111.49579620361328,111.49579620361328,0.0,115.47882080078125,115.47882080078125,0.0,114.49925994873047,114.49925994873047,0.0,1.0,1.0,0.0,'2',0.6050403714179993,0.6050403714179993,0.0,24.0
Shape,stimuli/circle.bmp,stimuli/vertical.bmp,stimuli/circle.bmp,stimuli/EmptyFrame.bmp,stimuli/RedFrame.bmp,2,Shape,None,3,1,1.0,115.49962615966797,115.49962615966797,0.0,119.48894500732422,119.48894500732422,0.0,118.50439453125,118.50439453125,0.0,1.0,1.0,0.0,'2',0.5092393755912781,0.5092393755912781,0.0,25.0
Shape,stimuli/vertical.bmp,stimuli/circle.bmp,stimuli/vertical.bmp,stimuli/EmptyFrame.bmp,stimuli/RedFrame.bmp,2,Shape,None,3,1,1.0,119.51062774658203,119.51062774658203,0.0,123.5027847290039,123.5027847290039,0.0,122.5162582397461,122.5162582397461,0.0,1.0,1.0,0.0,'2',0.5405101776123047,0.5405101776123047,0.0,26.0
Shape,stimuli/vertical.bmp,stimuli/horizontal.bmp,stimuli/vertical.bmp,stimuli/EmptyFrame.bmp,stimuli/RedFrame.bmp,2,Shape,None,3,1,1.0,123.52354431152344,123.52354431152344,0.0,127.51691436767578,127.51691436767578,0.0,126.52352905273438,126.52352905273438,0.0,1.0,1.0,0.0,'2',0.5744664072990417,0.5744664072990417,0.0,27.0
Shape,stimuli/horizontal.bmp,stimuli/horizontal.bmp,stimuli/vertical.bmp,stimuli/EmptyFrame.bmp,stimuli/RedFrame.bmp,1,Shape,None,3,1,1.0,127.54024505615234,127.54024505615234,0.0,131.5380096435547,131.5380096435547,0.0,130.53831481933594,130.53831481933594,0.0,0.0,0.0,0.0,'2',0.5976991057395935,0.5976991057395935,0.0,28.0
Shape,stimuli/horizontal.bmp,stimuli/circle.bmp,stimuli/horizontal.bmp,stimuli/EmptyFrame.bmp,stimuli/RedFrame.bmp,2,Shape,None,3,1,1.0,131.5590057373047,131.5590057373047,0.0,135.55397033691406,135.55397033691406,0.0,134.5631866455078,134.5631866455078,0.0,1.0,1.0,0.0,'2',0.611928403377533,0.611928403377533,0.0,29.0
Shape,stimuli/circle.bmp,stimuli/circle.bmp,stimuli/vertical.bmp,stimuli/EmptyFrame.bmp,stimuli/RedFrame.bmp,1,Shape,None,3,1,1.0,135.57643127441406,135.57643127441406,0.0,139.56732177734375,139.56732177734375,0.0,138.5849609375,138.5849609375,0.0,1.0,1.0,0.0,'1',0.7588344812393188,0.7588344812393188,0.0,30.0
Shape,stimuli/vertical.bmp,stimuli/horizontal.bmp,stimuli/vertical.bmp,stimuli/EmptyFrame.bmp,stimuli/RedFrame.bmp,2,Shape,None,3,1,1.0,139.58876037597656,139.58876037597656,0.0,143.5795135498047,143.5795135498047,0.0,142.59268188476562,142.59268188476562,0.0,1.0,1.0,0.0,'2',0.7280387282371521,0.7280387282371521,0.0,31.0
Shape,stimuli/vertical.bmp,stimuli/vertical.bmp,stimuli/horizontal.bmp,stimuli/EmptyFrame.bmp,stimuli/RedFrame.bmp,1,Shape,None,3,1,1.0,143.59902954101562,143.59902954101562,0.0,147.59658813476562,147.59658813476562,0.0,146.6037139892578,146.6037139892578,0.0,1.0,1.0,0.0,'1',0.7401260137557983,0.7401260137557983,0.0,32.0
MatchFaces,stimuli/MatchFaces.bmp,stimuli/EmptyFace.bmp,stimuli/EmptyFace.bmp,stimuli/EmptyFrame.bmp,stimuli/EmptyFrame.bmp,Null,None,None,3,1,1.0,147.90335083007812,147.90335083007812,0.0,151.5983428955078,151.5983428955078,0.0,150.60549926757812,150.60549926757812,0.0,0.0,0.0,0.0,,,,,33.0
Anger,stimuli/20M_AN_O.BMP,stimuli/34M_AN_O.BMP,stimuli/20M_AN_O.BMP,stimuli/EmptyFrame.bmp,stimuli/RedFrame.bmp,2,Anger,Male,3,1,1.0,151.74444580078125,151.74444580078125,0.0,155.6091766357422,155.6091766357422,0.0,154.62120056152344,154.62120056152344,0.0,1.0,1.0,0.0,'2',0.7888836860656738,0.7888836860656738,0.0,34.0
Anger,stimuli/01F_AN_O.bmp,stimuli/19F_AN_O.BMP,stimuli/01F_AN_O.bmp,stimuli/EmptyFrame.bmp,stimuli/RedFrame.bmp,2,Anger,Female,3,1,1.0,155.6403045654297,155.6403045654297,0.0,159.62640380859375,159.62640380859375,0.0,158.65870666503906,158.65870666503906,0.0,1.0,1.0,0.0,'2',0.7511329054832458,0.7511329054832458,0.0,35.0
Anger,stimuli/06F_AN_O.bmp,stimuli/15F_AN_O.BMP,stimuli/06F_AN_O.bmp,stimuli/EmptyFrame.bmp,stimuli/RedFrame.bmp,2,Anger,Female,3,1,1.0,159.65513610839844,159.65513610839844,0.0,163.64492797851562,163.64492797851562,0.0,162.6623992919922,162.6623992919922,0.0,1.0,1.0,0.0,'2',1.0673595666885376,1.0673595666885376,0.0,36.0
Anger,stimuli/42M_AN_O.BMP,stimuli/42M_AN_O.BMP,stimuli/43M_AN_O.BMP,stimuli/EmptyFrame.bmp,stimuli/RedFrame.bmp,1,Anger,Male,3,1,1.0,163.67152404785156,163.67152404785156,0.0,167.66824340820312,167.66824340820312,0.0,166.6739501953125,166.6739501953125,0.0,1.0,1.0,0.0,'1',0.6306095123291016,0.6306095123291016,0.0,37.0
Anger,stimuli/40M_AN_O.BMP,stimuli/41M_AN_O.BMP,stimuli/40M_AN_O.BMP,stimuli/EmptyFrame.bmp,stimuli/RedFrame.bmp,2,Anger,Male,3,1,1.0,167.7005157470703,167.7005157470703,0.0,171.68727111816406,171.68727111816406,0.0,170.7041778564453,170.7041778564453,0.0,1.0,1.0,0.0,'2',0.6048756837844849,0.6048756837844849,0.0,38.0
Anger,stimuli/08F_AN_O.BMP,stimuli/08F_AN_O.BMP,stimuli/13F_AN_O.BMP,stimuli/EmptyFrame.bmp,stimuli/RedFrame.bmp,1,Anger,Female,3,1,1.0,171.7169189453125,171.7169189453125,0.0,175.70590209960938,175.70590209960938,0.0,174.71617126464844,174.71617126464844,0.0,1.0,1.0,0.0,'1',0.6648296117782593,0.6648296117782593,0.0,39.0
Anger,stimuli/09F_AN_O.BMP,stimuli/12F_AN_O.BMP,stimuli/09F_AN_O.BMP,stimuli/EmptyFrame.bmp,stimuli/RedFrame.bmp,2,Anger,Female,3,1,1.0,175.73387145996094,175.73387145996094,0.0,179.7191162109375,179.7191162109375,0.0,178.74269104003906,178.74269104003906,0.0,1.0,1.0,0.0,'2',0.6695421934127808,0.6695421934127808,0.0,40.0
Anger,stimuli/34M_AN_O.BMP,stimuli/35M_AN_O.BMP,stimuli/34M_AN_O.BMP,stimuli/EmptyFrame.bmp,stimuli/RedFrame.bmp,2,Anger,Male,3,1,1.0,179.747314453125,179.747314453125,0.0,183.73330688476562,183.73330688476562,0.0,182.74659729003906,182.74659729003906,0.0,1.0,1.0,0.0,'2',0.6208004951477051,0.6208004951477051,0.0,41.0
Anger,stimuli/24M_AN_O.BMP,stimuli/24M_AN_O.BMP,stimuli/30M_AN_O.BMP,stimuli/EmptyFrame.bmp,stimuli/RedFrame.bmp,1,Anger,Male,3,1,1.0,183.7615203857422,183.7615203857422,0.0,187.74720764160156,187.74720764160156,0.0,186.7648468017578,186.7648468017578,0.0,1.0,1.0,0.0,'1',0.658474326133728,0.658474326133728,0.0,42.0
Anger,stimuli/03F_AN_O.bmp,stimuli/03F_AN_O.bmp,stimuli/17F_AN_O.BMP,stimuli/EmptyFrame.bmp,stimuli/RedFrame.bmp,1,Anger,Female,3,1,1.0,187.7777862548828,187.7777862548828,0.0,191.77601623535156,191.77601623535156,0.0,190.7752685546875,190.7752685546875,0.0,1.0,1.0,0.0,'1',0.7084478139877319,0.7084478139877319,0.0,43.0
MatchFaces,stimuli/MatchFaces.bmp,stimuli/EmptyFace.bmp,stimuli/EmptyFace.bmp,stimuli/EmptyFrame.bmp,stimuli/EmptyFrame.bmp,Null,None,None,3,1,1.0,192.13819885253906,192.13819885253906,0.0,195.78323364257812,195.78323364257812,0.0,194.7885284423828,194.7885284423828,0.0,0.0,0.0,0.0,,,,,44.0
Happy,stimuli/06F_HA_O.bmp,stimuli/07F_HA_O.BMP,stimuli/06F_HA_O.bmp,stimuli/EmptyFrame.bmp,stimuli/RedFrame.bmp,2,Happy,Female,3,1,1.0,195.85459899902344,195.85459899902344,0.0,199.7977752685547,199.7977752685547,0.0,198.81336975097656,198.81336975097656,0.0,1.0,1.0,0.0,'2',0.7303081750869751,0.7303081750869751,0.0,45.0
Happy,stimuli/13F_HA_O.BMP,stimuli/13F_HA_O.BMP,stimuli/12F_HA_O.BMP,stimuli/EmptyFrame.bmp,stimuli/RedFrame.bmp,1,Happy,Female,3,1,1.0,199.82179260253906,199.82179260253906,0.0,203.8166046142578,203.8166046142578,0.0,202.8260040283203,202.8260040283203,0.0,1.0,1.0,0.0,'1',0.7487586140632629,0.7487586140632629,0.0,46.0
Happy,stimuli/41M_HA_O.BMP,stimuli/41M_HA_O.BMP,stimuli/40M_HA_O.BMP,stimuli/EmptyFrame.bmp,stimuli/RedFrame.bmp,1,Happy,Male,3,1,1.0,203.84352111816406,203.84352111816406,0.0,207.82708740234375,207.82708740234375,0.0,206.87335205078125,206.87335205078125,0.0,1.0,1.0,0.0,'1',0.8541104793548584,0.8541104793548584,0.0,47.0
Happy,stimuli/03F_HA_O.bmp,stimuli/05F_HA_O.bmp,stimuli/03F_HA_O.bmp,stimuli/EmptyFrame.bmp,stimuli/RedFrame.bmp,2,Happy,Female,3,1,1.0,207.85464477539062,207.85464477539062,0.0,211.8417205810547,211.8417205810547,0.0,210.85757446289062,210.85757446289062,0.0,1.0,1.0,0.0,'2',0.7691975831985474,0.7691975831985474,0.0,48.0
Happy,stimuli/24M_HA_O.BMP,stimuli/24M_HA_O.BMP,stimuli/25M_HA_O.BMP,stimuli/EmptyFrame.bmp,stimuli/RedFrame.bmp,1,Happy,Male,3,1,1.0,211.8721466064453,211.8721466064453,0.0,215.86659240722656,215.86659240722656,0.0,214.8763885498047,214.8763885498047,0.0,1.0,1.0,0.0,'1',0.6314498782157898,0.6314498782157898,0.0,49.0
Happy,stimuli/19F_HA_O.BMP,stimuli/19F_HA_O.BMP,stimuli/18F_HA_O.BMP,stimuli/EmptyFrame.bmp,stimuli/RedFrame.bmp,1,Happy,Female,3,1,1.0,215.91246032714844,215.91246032714844,0.0,219.8811798095703,219.8811798095703,0.0,218.9009552001953,218.9009552001953,0.0,1.0,1.0,0.0,'1',0.6553617119789124,0.6553617119789124,0.0,50.0
Happy,stimuli/01F_HA_O.bmp,stimuli/01F_HA_O.bmp,stimuli/02F_HA_O.bmp,stimuli/EmptyFrame.bmp,stimuli/RedFrame.bmp,1,Happy,Female,3,1,1.0,219.90777587890625,219.90777587890625,0.0,223.89791870117188,223.89791870117188,0.0,222.90223693847656,222.90223693847656,0.0,1.0,1.0,0.0,'1',0.7254357933998108,0.7254357933998108,0.0,51.0
Happy,stimuli/22M_HA_O.BMP,stimuli/23M_HA_O.BMP,stimuli/22M_HA_O.BMP,stimuli/EmptyFrame.bmp,stimuli/RedFrame.bmp,2,Happy,Male,3,1,1.0,223.9240264892578,223.9240264892578,0.0,227.91336059570312,227.91336059570312,0.0,226.92440795898438,226.92440795898438,0.0,1.0,1.0,0.0,'2',0.8920902013778687,0.8920902013778687,0.0,52.0
Happy,stimuli/35M_HA_O.BMP,stimuli/34M_HA_O.BMP,stimuli/35M_HA_O.BMP,stimuli/EmptyFrame.bmp,stimuli/RedFrame.bmp,2,Happy,Male,3,1,1.0,227.94366455078125,227.94366455078125,0.0,231.92930603027344,231.92930603027344,0.0,230.93576049804688,230.93576049804688,0.0,1.0,1.0,0.0,'2',0.7862266898155212,0.7862266898155212,0.0,53.0
Happy,stimuli/39M_HA_O.BMP,stimuli/38M_HA_O.BMP,stimuli/39M_HA_O.BMP,stimuli/EmptyFrame.bmp,stimuli/RedFrame.bmp,2,Happy,Male,3,1,1.0,231.9582061767578,231.9582061767578,0.0,235.94712829589844,235.94712829589844,0.0,234.96401977539062,234.96401977539062,0.0,1.0,1.0,0.0,'2',0.6839504837989807,0.6839504837989807,0.0,54.0
Match Shape,stimuli/MatchShapes.bmp,stimuli/EmptyFace.bmp,stimuli/EmptyFace.bmp,stimuli/EmptyFrame.bmp,stimuli/EmptyFrame.bmp,Null,None,None,3,1,1.0,235.9710235595703,235.9710235595703,0.0,239.9485626220703,239.9485626220703,0.0,238.95437622070312,238.95437622070312,0.0,0.0,0.0,0.0,,,,,55.0
Shape,stimuli/horizontal.bmp,stimuli/horizontal.bmp,stimuli/vertical.bmp,stimuli/EmptyFrame.bmp,stimuli/RedFrame.bmp,1,Shape,None,3,1,1.0,239.98538208007812,239.98538208007812,0.0,243.9654083251953,243.9654083251953,0.0,242.9810333251953,242.9810333251953,0.0,1.0,1.0,0.0,'1',0.9157217144966125,0.9157217144966125,0.0,56.0
Shape,stimuli/horizontal.bmp,stimuli/horizontal.bmp,stimuli/circle.bmp,stimuli/EmptyFrame.bmp,stimuli/RedFrame.bmp,1,Shape,None,3,1,1.0,243.9893798828125,243.9893798828125,0.0,247.9903564453125,247.9903564453125,0.0,246.98837280273438,246.98837280273438,0.0,1.0,1.0,0.0,'1',0.6607171297073364,0.6607171297073364,0.0,57.0
Shape,stimuli/circle.bmp,stimuli/vertical.bmp,stimuli/circle.bmp,stimuli/EmptyFrame.bmp,stimuli/RedFrame.bmp,2,Shape,None,3,1,1.0,248.01898193359375,248.01898193359375,0.0,252.00790405273438,252.00790405273438,0.0,251.02027893066406,251.02027893066406,0.0,1.0,1.0,0.0,'2',0.612536609172821,0.612536609172821,0.0,58.0
Shape,stimuli/vertical.bmp,stimuli/vertical.bmp,stimuli/circle.bmp,stimuli/EmptyFrame.bmp,stimuli/RedFrame.bmp,1,Shape,None,3,1,1.0,252.02938842773438,252.02938842773438,0.0,256.02227783203125,256.02227783203125,0.0,255.03517150878906,255.03517150878906,0.0,1.0,1.0,0.0,'1',0.7369294762611389,0.7369294762611389,0.0,59.0
Shape,stimuli/horizontal.bmp,stimuli/horizontal.bmp,stimuli/circle.bmp,stimuli/EmptyFrame.bmp,stimuli/RedFrame.bmp,1,Shape,None,3,1,1.0,256.0479431152344,256.0479431152344,0.0,260.0380859375,260.0380859375,0.0,259.0453796386719,259.0453796386719,0.0,1.0,1.0,0.0,'1',0.6329777836799622,0.6329777836799622,0.0,60.0
Shape,stimuli/vertical.bmp,stimuli/vertical.bmp,stimuli/circle.bmp,stimuli/EmptyFrame.bmp,stimuli/RedFrame.bmp,1,Shape,None,3,1,1.0,260.0641174316406,260.0641174316406,0.0,264.0550537109375,264.0550537109375,0.0,263.05767822265625,263.05767822265625,0.0,1.0,1.0,0.0,'1',0.5997312068939209,0.5997312068939209,0.0,61.0
Shape,stimuli/horizontal.bmp,stimuli/circle.bmp,stimuli/horizontal.bmp,stimuli/EmptyFrame.bmp,stimuli/RedFrame.bmp,2,Shape,None,3,1,1.0,264.0779113769531,264.0779113769531,0.0,268.0694274902344,268.0694274902344,0.0,267.0906066894531,267.0906066894531,0.0,1.0,1.0,0.0,'2',0.6368014216423035,0.6368014216423035,0.0,62.0
Shape,stimuli/circle.bmp,stimuli/circle.bmp,stimuli/horizontal.bmp,stimuli/EmptyFrame.bmp,stimuli/RedFrame.bmp,1,Shape,None,3,1,1.0,268.0965270996094,268.0965270996094,0.0,272.0807189941406,272.0807189941406,0.0,271.0914611816406,271.0914611816406,0.0,1.0,1.0,0.0,'1',0.8903172016143799,0.8903172016143799,0.0,63.0
Shape,stimuli/circle.bmp,stimuli/horizontal.bmp,stimuli/circle.bmp,stimuli/EmptyFrame.bmp,stimuli/RedFrame.bmp,2,Shape,None,3,1,1.0,272.103271484375,272.103271484375,0.0,276.1039123535156,276.1039123535156,0.0,275.1078186035156,275.1078186035156,0.0,1.0,1.0,0.0,'2',0.5029599070549011,0.5029599070549011,0.0,64.0
Shape,stimuli/vertical.bmp,stimuli/vertical.bmp,stimuli/horizontal.bmp,stimuli/EmptyFrame.bmp,stimuli/RedFrame.bmp,1,Shape,None,3,1,1.0,276.1275939941406,276.1275939941406,0.0,280.11767578125,280.11767578125,0.0,279.1278991699219,279.1278991699219,0.0,1.0,1.0,0.0,'1',0.6726667284965515,0.6726667284965515,0.0,65.0
MatchFaces,stimuli/MatchFaces.bmp,stimuli/EmptyFace.bmp,stimuli/EmptyFace.bmp,stimuli/EmptyFrame.bmp,stimuli/EmptyFrame.bmp,Null,None,None,3,1,1.0,280.5554504394531,280.5554504394531,0.0,284.1197509765625,284.1197509765625,0.0,283.1318054199219,283.1318054199219,0.0,0.0,0.0,0.0,,,,,66.0
Neutral,stimuli/20M_NE_C.BMP,stimuli/21M_NE_C.BMP,stimuli/20M_NE_C.BMP,stimuli/EmptyFrame.bmp,stimuli/RedFrame.bmp,2,Neutral,Male,3,1,1.0,284.1880798339844,284.1880798339844,0.0,288.1382141113281,288.1382141113281,0.0,287.1558532714844,287.1558532714844,0.0,1.0,1.0,0.0,'2',0.6736317873001099,0.6736317873001099,0.0,67.0
Neutral,stimuli/01F_NE_C.bmp,stimuli/01F_NE_C.bmp,stimuli/02F_NE_C.bmp,stimuli/EmptyFrame.bmp,stimuli/RedFrame.bmp,1,Neutral,Female,3,1,1.0,288.17291259765625,288.17291259765625,0.0,292.1545104980469,292.1545104980469,0.0,291.1580810546875,291.1580810546875,0.0,1.0,1.0,0.0,'1',0.6282826066017151,0.6282826066017151,0.0,68.0
Neutral,stimuli/22M_NE_C.BMP,stimuli/23M_NE_C.BMP,stimuli/22M_NE_C.BMP,stimuli/EmptyFrame.bmp,stimuli/RedFrame.bmp,2,Neutral,Male,3,1,1.0,292.1891174316406,292.1891174316406,0.0,296.1776428222656,296.1776428222656,0.0,295.18634033203125,295.18634033203125,0.0,1.0,1.0,0.0,'2',0.7604787945747375,0.7604787945747375,0.0,69.0
Neutral,stimuli/24M_NE_C.BMP,stimuli/24M_NE_C.BMP,stimuli/25M_NE_C.BMP,stimuli/EmptyFrame.bmp,stimuli/RedFrame.bmp,1,Neutral,Male,3,1,1.0,296.2010192871094,296.2010192871094,0.0,300.19525146484375,300.19525146484375,0.0,299.2135009765625,299.2135009765625,0.0,1.0,1.0,0.0,'1',0.7980735898017883,0.7980735898017883,0.0,70.0
Neutral,stimuli/03F_NE_C.bmp,stimuli/05F_NE_C.bmp,stimuli/03F_NE_C.bmp,stimuli/EmptyFrame.bmp,stimuli/RedFrame.bmp,2,Neutral,Female,3,1,1.0,300.2425537109375,300.2425537109375,0.0,304.2098388671875,304.2098388671875,0.0,303.2254333496094,303.2254333496094,0.0,1.0,1.0,0.0,'2',0.622285008430481,0.622285008430481,0.0,71.0
Neutral,stimuli/26M_NE_C.BMP,stimuli/26M_NE_C.BMP,stimuli/27M_NE_C.BMP,stimuli/EmptyFrame.bmp,stimuli/RedFrame.bmp,1,Neutral,Male,3,1,1.0,304.233642578125,304.233642578125,0.0,308.2398986816406,308.2398986816406,0.0,307.2349853515625,307.2349853515625,0.0,1.0,1.0,0.0,'1',0.6907871961593628,0.6907871961593628,0.0,72.0
Neutral,stimuli/06F_NE_C.bmp,stimuli/07F_NE_C.BMP,stimuli/06F_NE_C.bmp,stimuli/EmptyFrame.bmp,stimuli/RedFrame.bmp,2,Neutral,Female,3,1,1.0,308.2660217285156,308.2660217285156,0.0,312.2657775878906,312.2657775878906,0.0,311.2911682128906,311.2911682128906,0.0,1.0,1.0,0.0,'2',0.7146841287612915,0.7146841287612915,0.0,73.0
Neutral,stimuli/08F_NE_C.BMP,stimuli/08F_NE_C.BMP,stimuli/09F_NE_C.BMP,stimuli/EmptyFrame.bmp,stimuli/RedFrame.bmp,1,Neutral,Female,3,1,1.0,312.2919921875,312.2919921875,0.0,316.2846984863281,316.2846984863281,0.0,315.3036193847656,315.3036193847656,0.0,1.0,1.0,0.0,'1',0.6984853148460388,0.6984853148460388,0.0,74.0
Neutral,stimuli/28M_NE_C.BMP,stimuli/29M_NE_C.BMP,stimuli/28M_NE_C.BMP,stimuli/EmptyFrame.bmp,stimuli/RedFrame.bmp,2,Neutral,Male,3,1,1.0,316.3046569824219,316.3046569824219,0.0,320.30316162109375,320.30316162109375,0.0,319.30712890625,319.30712890625,0.0,1.0,1.0,0.0,'2',0.5950248837471008,0.5950248837471008,0.0,75.0
Neutral,stimuli/10F_NE_C.BMP,stimuli/10F_NE_C.BMP,stimuli/06F_NE_C.bmp,stimuli/EmptyFrame.bmp,stimuli/RedFrame.bmp,1,Neutral,Female,3,1,1.0,320.33319091796875,320.33319091796875,0.0,324.3228759765625,324.3228759765625,0.0,323.3780517578125,323.3780517578125,0.0,1.0,1.0,0.0,'1',0.6745063066482544,0.6745063066482544,0.0,76.0
MatchFaces,stimuli/MatchFaces.bmp,stimuli/EmptyFace.bmp,stimuli/EmptyFace.bmp,stimuli/EmptyFrame.bmp,stimuli/EmptyFrame.bmp,Null,None,None,3,1,1.0,324.55462646484375,324.55462646484375,0.0,328.33331298828125,328.33331298828125,0.0,327.3338623046875,327.3338623046875,0.0,0.0,0.0,0.0,,,,,77.0
Happy,stimuli/28M_HA_O.BMP,stimuli/29M_HA_O.BMP,stimuli/28M_HA_O.BMP,stimuli/EmptyFrame.bmp,stimuli/RedFrame.bmp,2,Happy,Male,3,1,1.0,328.4030456542969,328.4030456542969,0.0,332.3514099121094,332.3514099121094,0.0,331.3564147949219,331.3564147949219,0.0,1.0,1.0,0.0,'2',0.6992238163948059,0.6992238163948059,0.0,78.0
Happy,stimuli/10F_HA_O.BMP,stimuli/10F_HA_O.BMP,stimuli/06F_HA_O.bmp,stimuli/EmptyFrame.bmp,stimuli/RedFrame.bmp,1,Happy,Female,3,1,1.0,332.3756103515625,332.3756103515625,0.0,336.3719482421875,336.3719482421875,0.0,335.3764953613281,335.3764953613281,0.0,1.0,1.0,0.0,'1',0.636662483215332,0.636662483215332,0.0,79.0
Happy,stimuli/26M_HA_O.BMP,stimuli/26M_HA_O.BMP,stimuli/27M_HA_O.BMP,stimuli/EmptyFrame.bmp,stimuli/RedFrame.bmp,1,Happy,Male,3,1,1.0,336.40118408203125,336.40118408203125,0.0,340.38958740234375,340.38958740234375,0.0,339.3999328613281,339.3999328613281,0.0,1.0,1.0,0.0,'1',0.7000669240951538,0.7000669240951538,0.0,80.0
Happy,stimuli/20M_HA_O.BMP,stimuli/21M_HA_O.BMP,stimuli/20M_HA_O.BMP,stimuli/EmptyFrame.bmp,stimuli/RedFrame.bmp,2,Happy,Male,3,1,1.0,340.4163818359375,340.4163818359375,0.0,344.4065246582031,344.4065246582031,0.0,343.4237976074219,343.4237976074219,0.0,1.0,1.0,0.0,'2',0.6394628882408142,0.6394628882408142,0.0,81.0
Happy,stimuli/37M_HA_O.BMP,stimuli/37M_HA_O.BMP,stimuli/36M_HA_O.BMP,stimuli/EmptyFrame.bmp,stimuli/RedFrame.bmp,1,Happy,Male,3,1,1.0,344.4350891113281,344.4350891113281,0.0,348.4219970703125,348.4219970703125,0.0,347.43414306640625,347.43414306640625,0.0,1.0,1.0,0.0,'1',0.6350567936897278,0.6350567936897278,0.0,82.0
Happy,stimuli/43M_HA_O.BMP,stimuli/42M_HA_O.BMP,stimuli/43M_HA_O.BMP,stimuli/EmptyFrame.bmp,stimuli/RedFrame.bmp,2,Happy,Male,3,1,1.0,348.4502258300781,348.4502258300781,0.0,352.4352722167969,352.4352722167969,0.0,351.45416259765625,351.45416259765625,0.0,1.0,1.0,0.0,'2',0.4824419915676117,0.4824419915676117,0.0,83.0
Happy,stimuli/11F_HA_O.BMP,stimuli/10F_HA_O.BMP,stimuli/11F_HA_O.BMP,stimuli/EmptyFrame.bmp,stimuli/RedFrame.bmp,2,Happy,Female,3,1,1.0,352.4627685546875,352.4627685546875,0.0,356.4476623535156,356.4476623535156,0.0,355.4564514160156,355.4564514160156,0.0,1.0,1.0,0.0,'2',0.5492110848426819,0.5492110848426819,0.0,84.0
Happy,stimuli/17F_HA_O.BMP,stimuli/16F_HA_O.BMP,stimuli/17F_HA_O.BMP,stimuli/EmptyFrame.bmp,stimuli/RedFrame.bmp,2,Happy,Female,3,1,1.0,356.4769287109375,356.4769287109375,0.0,360.4573974609375,360.4573974609375,0.0,359.4737243652344,359.4737243652344,0.0,1.0,1.0,0.0,'2',0.5234768986701965,0.5234768986701965,0.0,85.0
Happy,stimuli/15F_HA_O.BMP,stimuli/15F_HA_O.BMP,stimuli/14F_HA_O.BMP,stimuli/EmptyFrame.bmp,stimuli/RedFrame.bmp,1,Happy,Female,3,1,1.0,360.484130859375,360.484130859375,0.0,364.4687194824219,364.4687194824219,0.0,363.479248046875,363.479248046875,0.0,1.0,1.0,0.0,'1',0.6675142049789429,0.6675142049789429,0.0,86.0
Happy,stimuli/08F_HA_O.BMP,stimuli/08F_HA_O.BMP,stimuli/09F_HA_O.BMP,stimuli/EmptyFrame.bmp,stimuli/RedFrame.bmp,1,Happy,Female,3,1,1.0,364.4967346191406,364.4967346191406,0.0,368.4772644042969,368.4772644042969,0.0,367.49102783203125,367.49102783203125,0.0,1.0,1.0,0.0,'1',0.6671578288078308,0.6671578288078308,0.0,87.0
MatchFaces,stimuli/MatchFaces.bmp,stimuli/EmptyFace.bmp,stimuli/EmptyFace.bmp,stimuli/EmptyFrame.bmp,stimuli/EmptyFrame.bmp,Null,None,None,3,1,1.0,368.7701416015625,368.7701416015625,0.0,372.48419189453125,372.48419189453125,0.0,371.4878234863281,371.4878234863281,0.0,0.0,0.0,0.0,,,,,88.0
Fear,stimuli/34M_FE_O.BMP,stimuli/34M_FE_O.BMP,stimuli/33M_FE_O.BMP,stimuli/EmptyFrame.bmp,stimuli/RedFrame.bmp,1,Fear,Male,3,1,1.0,372.62158203125,372.62158203125,0.0,376.4981384277344,376.4981384277344,0.0,375.5213928222656,375.5213928222656,0.0,1.0,1.0,0.0,'1',0.7515429258346558,0.7515429258346558,0.0,89.0
Fear,stimuli/28M_FE_O.BMP,stimuli/28M_FE_O.BMP,stimuli/25M_FE_O.BMP,stimuli/EmptyFrame.bmp,stimuli/RedFrame.bmp,1,Fear,Male,3,1,1.0,376.5187072753906,376.5187072753906,0.0,380.5115661621094,380.5115661621094,0.0,379.52142333984375,379.52142333984375,0.0,1.0,1.0,0.0,'1',0.7138369083404541,0.7138369083404541,0.0,90.0
Fear,stimuli/11F_FE_O.BMP,stimuli/10F_FE_O.BMP,stimuli/11F_FE_O.BMP,stimuli/EmptyFrame.bmp,stimuli/RedFrame.bmp,2,Fear,Female,3,1,1.0,380.54290771484375,380.54290771484375,0.0,384.5260925292969,384.5260925292969,0.0,383.5357971191406,383.5357971191406,0.0,1.0,1.0,0.0,'2',0.7705689072608948,0.7705689072608948,0.0,91.0
Fear,stimuli/27M_FE_O.BMP,stimuli/26M_FE_O.BMP,stimuli/27M_FE_O.BMP,stimuli/EmptyFrame.bmp,stimuli/RedFrame.bmp,2,Fear,Male,3,1,1.0,384.5511779785156,384.5511779785156,0.0,388.5487365722656,388.5487365722656,0.0,387.5953674316406,387.5953674316406,0.0,1.0,1.0,0.0,'2',0.6036159992218018,0.6036159992218018,0.0,92.0
Fear,stimuli/11F_FE_O.BMP,stimuli/12F_FE_O.BMP,stimuli/11F_FE_O.BMP,stimuli/EmptyFrame.bmp,stimuli/RedFrame.bmp,2,Fear,Female,3,1,1.0,388.5751037597656,388.5751037597656,0.0,392.56475830078125,392.56475830078125,0.0,391.58331298828125,391.58331298828125,0.0,1.0,1.0,0.0,'2',0.7065646052360535,0.7065646052360535,0.0,93.0
Fear,stimuli/31M_FE_O.BMP,stimuli/31M_FE_O.BMP,stimuli/38M_FE_O.BMP,stimuli/EmptyFrame.bmp,stimuli/RedFrame.bmp,1,Fear,Male,3,1,1.0,392.59173583984375,392.59173583984375,0.0,396.58294677734375,396.58294677734375,0.0,395.593017578125,395.593017578125,0.0,1.0,1.0,0.0,'1',0.6598650217056274,0.6598650217056274,0.0,94.0
Fear,stimuli/29M_FE_O.BMP,stimuli/29M_FE_O.BMP,stimuli/24M_FE_O.BMP,stimuli/EmptyFrame.bmp,stimuli/RedFrame.bmp,1,Fear,Male,3,1,1.0,396.6070556640625,396.6070556640625,0.0,400.59307861328125,400.59307861328125,0.0,399.618896484375,399.618896484375,0.0,1.0,1.0,0.0,'1',0.6046937704086304,0.6046937704086304,0.0,95.0
Fear,stimuli/25M_FE_O.BMP,stimuli/29M_FE_O.BMP,stimuli/25M_FE_O.BMP,stimuli/EmptyFrame.bmp,stimuli/RedFrame.bmp,2,Fear,Male,3,1,1.0,400.6145935058594,400.6145935058594,0.0,404.60174560546875,404.60174560546875,0.0,403.62420654296875,403.62420654296875,0.0,1.0,1.0,0.0,'2',0.5830168724060059,0.5830168724060059,0.0,96.0
Fear,stimuli/15F_FE_O.BMP,stimuli/18F_FE_O.BMP,stimuli/15F_FE_O.BMP,stimuli/EmptyFrame.bmp,stimuli/RedFrame.bmp,2,Fear,Female,3,1,1.0,404.6278991699219,404.6278991699219,0.0,408.62255859375,408.62255859375,0.0,407.634521484375,407.634521484375,0.0,1.0,1.0,0.0,'2',0.7084894776344299,0.7084894776344299,0.0,97.0
Fear,stimuli/09F_FE_O.BMP,stimuli/09F_FE_O.BMP,stimuli/12F_FE_O.BMP,stimuli/EmptyFrame.bmp,stimuli/RedFrame.bmp,1,Fear,Female,3,1,1.0,408.64739990234375,408.64739990234375,0.0,412.6380310058594,412.6380310058594,0.0,411.6433410644531,411.6433410644531,0.0,1.0,1.0,0.0,'1',0.5828995108604431,0.5828995108604431,0.0,98.0
MatchFaces,stimuli/MatchFaces.bmp,stimuli/EmptyFace.bmp,stimuli/EmptyFace.bmp,stimuli/EmptyFrame.bmp,stimuli/EmptyFrame.bmp,Null,None,None,3,1,1.0,412.8759460449219,412.8759460449219,0.0,416.64886474609375,416.64886474609375,0.0,415.6673278808594,415.6673278808594,0.0,0.0,0.0,0.0,,,,,99.0
Anger,stimuli/23M_AN_O.BMP,stimuli/23M_AN_O.BMP,stimuli/31M_AN_O.BMP,stimuli/EmptyFrame.bmp,stimuli/RedFrame.bmp,1,Anger,Male,3,1,1.0,416.7597351074219,416.7597351074219,0.0,420.6646728515625,420.6646728515625,0.0,419.6798095703125,419.6798095703125,0.0,1.0,1.0,0.0,'1',0.810778796672821,0.810778796672821,0.0,100.0
Anger,stimuli/36M_AN_O.BMP,stimuli/37M_AN_O.BMP,stimuli/36M_AN_O.BMP,stimuli/EmptyFrame.bmp,stimuli/RedFrame.bmp,2,Anger,Male,3,1,1.0,420.6913757324219,420.6913757324219,0.0,424.67974853515625,424.67974853515625,0.0,423.7091369628906,423.7091369628906,0.0,1.0,1.0,0.0,'2',0.6782811880111694,0.6782811880111694,0.0,101.0
Anger,stimuli/38M_AN_O.BMP,stimuli/39M_AN_O.BMP,stimuli/38M_AN_O.BMP,stimuli/EmptyFrame.bmp,stimuli/RedFrame.bmp,2,Anger,Male,3,1,1.0,424.7148132324219,424.7148132324219,0.0,428.695068359375,428.695068359375,0.0,427.7120056152344,427.7120056152344,0.0,1.0,1.0,0.0,'2',1.0531078577041626,1.0531078577041626,0.0,102.0
Anger,stimuli/02f_an_o.bmp,stimuli/18F_AN_O.BMP,stimuli/02f_an_o.bmp,stimuli/EmptyFrame.bmp,stimuli/RedFrame.bmp,2,Anger,Female,3,1,1.0,428.7235412597656,428.7235412597656,0.0,432.71044921875,432.71044921875,0.0,431.7170715332031,431.7170715332031,0.0,1.0,1.0,0.0,'2',0.6093698143959045,0.6093698143959045,0.0,103.0
Anger,stimuli/22M_AN_O.BMP,stimuli/32M_AN_O.BMP,stimuli/22M_AN_O.BMP,stimuli/EmptyFrame.bmp,stimuli/RedFrame.bmp,2,Anger,Male,3,1,1.0,432.7398681640625,432.7398681640625,0.0,436.7266540527344,436.7266540527344,0.0,435.74554443359375,435.74554443359375,0.0,1.0,1.0,0.0,'2',0.758810818195343,0.758810818195343,0.0,104.0
Anger,stimuli/12F_AN_O.BMP,stimuli/12F_AN_O.BMP,stimuli/13F_AN_O.BMP,stimuli/EmptyFrame.bmp,stimuli/RedFrame.bmp,1,Anger,Female,3,1,1.0,436.7491760253906,436.7491760253906,0.0,440.7432861328125,440.7432861328125,0.0,439.7586669921875,439.7586669921875,0.0,1.0,1.0,0.0,'1',0.7273229956626892,0.7273229956626892,0.0,105.0
Anger,stimuli/05F_AN_O.bmp,stimuli/05F_AN_O.bmp,stimuli/16F_AN_O.BMP,stimuli/EmptyFrame.bmp,stimuli/RedFrame.bmp,1,Anger,Female,3,1,1.0,440.7763977050781,440.7763977050781,0.0,444.75433349609375,444.75433349609375,0.0,443.7684020996094,443.7684020996094,0.0,1.0,1.0,0.0,'1',0.7004442811012268,0.7004442811012268,0.0,106.0
Anger,stimuli/21M_AN_O.BMP,stimuli/21M_AN_O.BMP,stimuli/33M_AN_O.BMP,stimuli/EmptyFrame.bmp,stimuli/RedFrame.bmp,1,Anger,Male,3,1,1.0,444.78546142578125,444.78546142578125,0.0,448.7663269042969,448.7663269042969,0.0,447.779052734375,447.779052734375,0.0,1.0,1.0,0.0,'1',0.6785393953323364,0.6785393953323364,0.0,107.0
Anger,stimuli/07F_AN_O.BMP,stimuli/07F_AN_O.BMP,stimuli/14F_AN_O.BMP,stimuli/EmptyFrame.bmp,stimuli/RedFrame.bmp,1,Anger,Female,3,1,1.0,448.7980651855469,448.7980651855469,0.0,452.7829895019531,452.7829895019531,0.0,451.79522705078125,451.79522705078125,0.0,1.0,1.0,0.0,'1',0.5929257273674011,0.5929257273674011,0.0,108.0
Anger,stimuli/10F_AN_O.BMP,stimuli/10F_AN_O.BMP,stimuli/11F_AN_O.BMP,stimuli/EmptyFrame.bmp,stimuli/RedFrame.bmp,1,Anger,Female,3,1,1.0,452.8126525878906,452.8126525878906,0.0,456.8047180175781,456.8047180175781,0.0,455.80706787109375,455.80706787109375,0.0,1.0,1.0,0.0,'1',0.6928876042366028,0.6928876042366028,0.0,109.0

extraInfo
participant,sub024
session,2
date,2025_Jul_09_0806
expName,HaririTask_Ver2
psychopyVersion,3.0.1
frameRate,None
