TrialType,Top,Left,Right,EmptyFrame,SelectedFrame,Correct,Emotion,Gender,TrialLength,FixationLength,n,GCFaceStartTime_mean,GCFaceStartTime_raw,GCFaceStartTime_std,GCPostFaceFixationEndTime_mean,GCPostFaceFixationEndTime_raw,GCPostFaceFixationEndTime_std,GCPostFaceFixationStartTime_mean,GCPostFaceFixationStartTime_raw,GCPostFaceFixationStartTime_std,key_resp_trial.corr_mean,key_resp_trial.corr_raw,key_resp_trial.corr_std,key_resp_trial.keys_raw,key_resp_trial.rt_mean,key_resp_trial.rt_raw,key_resp_trial.rt_std,order
MatchFaces,stimuli/MatchFaces.bmp,stimuli/EmptyFace.bmp,stimuli/EmptyFace.bmp,stimuli/EmptyFrame.bmp,stimuli/EmptyFrame.bmp,Null,None,None,3,1,1.0,15.495200157165527,15.495200157165527,0.0,19.06952667236328,19.06952667236328,0.0,18.08816909790039,18.08816909790039,0.0,0.0,0.0,0.0,,,,,0.0
Fear,stimuli/23M_FE_O.BMP,stimuli/23M_FE_O.BMP,stimuli/24M_FE_O.BMP,stimuli/EmptyFrame.bmp,stimuli/RedFrame.bmp,1,Fear,Male,3,1,1.0,19.491121292114258,19.491121292114258,0.0,23.09015464782715,23.09015464782715,0.0,22.115537643432617,22.115537643432617,0.0,1.0,1.0,0.0,'1',0.965661883354187,0.965661883354187,0.0,1.0
Fear,stimuli/19F_FE_O.BMP,stimuli/18F_FE_O.BMP,stimuli/19F_FE_O.BMP,stimuli/EmptyFrame.bmp,stimuli/RedFrame.bmp,2,Fear,Female,3,1,1.0,23.124114990234375,23.124114990234375,0.0,27.14508628845215,27.14508628845215,0.0,26.13914680480957,26.13914680480957,0.0,1.0,1.0,0.0,'2',0.8679234981536865,0.8679234981536865,0.0,2.0
Fear,stimuli/17F_FE_O.BMP,stimuli/17F_FE_O.BMP,stimuli/16F_FE_O.BMP,stimuli/EmptyFrame.bmp,stimuli/RedFrame.bmp,1,Fear,Female,3,1,1.0,27.195632934570312,27.195632934570312,0.0,31.16986846923828,31.16986846923828,0.0,30.175586700439453,30.175586700439453,0.0,1.0,1.0,0.0,'1',0.6872007846832275,0.6872007846832275,0.0,3.0
Fear,stimuli/21M_FE_O.BMP,stimuli/21M_FE_O.BMP,stimuli/22M_FE_O.BMP,stimuli/EmptyFrame.bmp,stimuli/RedFrame.bmp,1,Fear,Male,3,1,1.0,31.204301834106445,31.204301834106445,0.0,35.185768127441406,35.185768127441406,0.0,34.20968246459961,34.20968246459961,0.0,1.0,1.0,0.0,'1',0.7935454845428467,0.7935454845428467,0.0,4.0
Fear,stimuli/09F_FE_O.BMP,stimuli/07F_FE_O.BMP,stimuli/09F_FE_O.BMP,stimuli/EmptyFrame.bmp,stimuli/RedFrame.bmp,2,Fear,Female,3,1,1.0,35.221107482910156,35.221107482910156,0.0,39.20771026611328,39.20771026611328,0.0,38.221282958984375,38.221282958984375,0.0,1.0,1.0,0.0,'2',0.5534020066261292,0.5534020066261292,0.0,5.0
Fear,stimuli/08F_FE_O.BMP,stimuli/13F_FE_O.BMP,stimuli/08F_FE_O.BMP,stimuli/EmptyFrame.bmp,stimuli/RedFrame.bmp,2,Fear,Female,3,1,1.0,39.23726272583008,39.23726272583008,0.0,43.22123336791992,43.22123336791992,0.0,42.248172760009766,42.248172760009766,0.0,1.0,1.0,0.0,'2',0.6407108902931213,0.6407108902931213,0.0,6.0
Fear,stimuli/07F_FE_O.BMP,stimuli/07F_FE_O.BMP,stimuli/14F_FE_O.BMP,stimuli/EmptyFrame.bmp,stimuli/RedFrame.bmp,1,Fear,Female,3,1,1.0,43.25178146362305,43.25178146362305,0.0,47.24061965942383,47.24061965942383,0.0,46.31809997558594,46.31809997558594,0.0,1.0,1.0,0.0,'1',0.5860782265663147,0.5860782265663147,0.0,7.0
Fear,stimuli/26M_FE_O.BMP,stimuli/26M_FE_O.BMP,stimuli/28M_FE_O.BMP,stimuli/EmptyFrame.bmp,stimuli/RedFrame.bmp,1,Fear,Male,3,1,1.0,47.27446746826172,47.27446746826172,0.0,51.2631950378418,51.2631950378418,0.0,50.27113342285156,50.27113342285156,0.0,1.0,1.0,0.0,'1',0.7204573750495911,0.7204573750495911,0.0,8.0
Fear,stimuli/10F_FE_O.BMP,stimuli/11F_FE_O.BMP,stimuli/10F_FE_O.BMP,stimuli/EmptyFrame.bmp,stimuli/RedFrame.bmp,2,Fear,Female,3,1,1.0,51.305320739746094,51.305320739746094,0.0,55.31640625,55.31640625,0.0,54.313480377197266,54.313480377197266,0.0,1.0,1.0,0.0,'2',0.4841698110103607,0.4841698110103607,0.0,9.0
Fear,stimuli/29M_FE_O.BMP,stimuli/30M_FE_O.BMP,stimuli/29M_FE_O.BMP,stimuli/EmptyFrame.bmp,stimuli/RedFrame.bmp,2,Fear,Male,3,1,1.0,55.35626983642578,55.35626983642578,0.0,59.337093353271484,59.337093353271484,0.0,58.349788665771484,58.349788665771484,0.0,1.0,1.0,0.0,'2',0.595109224319458,0.595109224319458,0.0,10.0
MatchFaces,stimuli/MatchFaces.bmp,stimuli/EmptyFace.bmp,stimuli/EmptyFace.bmp,stimuli/EmptyFrame.bmp,stimuli/EmptyFrame.bmp,Null,None,None,3,1,1.0,59.707252502441406,59.707252502441406,0.0,63.339054107666016,63.339054107666016,0.0,62.34496307373047,62.34496307373047,0.0,0.0,0.0,0.0,,,,,11.0
Neutral,stimuli/07F_NE_C.BMP,stimuli/07F_NE_C.BMP,stimuli/14F_NE_C.BMP,stimuli/EmptyFrame.bmp,stimuli/RedFrame.bmp,1,Neutral,Female,3,1,1.0,63.4692497253418,63.4692497253418,0.0,67.36844635009766,67.36844635009766,0.0,66.36634063720703,66.36634063720703,0.0,1.0,1.0,0.0,'1',0.5732430815696716,0.5732430815696716,0.0,12.0
Neutral,stimuli/25M_NE_C.BMP,stimuli/29M_NE_C.BMP,stimuli/25M_NE_C.BMP,stimuli/EmptyFrame.bmp,stimuli/RedFrame.bmp,2,Neutral,Male,3,1,1.0,67.40254974365234,67.40254974365234,0.0,71.39203643798828,71.39203643798828,0.0,70.4024887084961,70.4024887084961,0.0,1.0,1.0,0.0,'2',0.7184429168701172,0.7184429168701172,0.0,13.0
Neutral,stimuli/26M_NE_C.BMP,stimuli/26M_NE_C.BMP,stimuli/28M_NE_C.BMP,stimuli/EmptyFrame.bmp,stimuli/RedFrame.bmp,1,Neutral,Male,3,1,1.0,71.42311096191406,71.42311096191406,0.0,75.41922760009766,75.41922760009766,0.0,74.43448638916016,74.43448638916016,0.0,1.0,1.0,0.0,'1',0.5092489123344421,0.5092489123344421,0.0,14.0
Neutral,stimuli/08F_NE_C.BMP,stimuli/13F_NE_C.BMP,stimuli/08F_NE_C.BMP,stimuli/EmptyFrame.bmp,stimuli/RedFrame.bmp,2,Neutral,Female,3,1,1.0,75.45099639892578,75.45099639892578,0.0,79.44649505615234,79.44649505615234,0.0,78.45146179199219,78.45146179199219,0.0,1.0,1.0,0.0,'2',0.565635621547699,0.565635621547699,0.0,15.0
Neutral,stimuli/09F_NE_C.BMP,stimuli/09F_NE_C.BMP,stimuli/12F_NE_C.BMP,stimuli/EmptyFrame.bmp,stimuli/RedFrame.bmp,1,Neutral,Female,3,1,1.0,79.48149871826172,79.48149871826172,0.0,83.46851348876953,83.46851348876953,0.0,82.48126983642578,82.48126983642578,0.0,1.0,1.0,0.0,'1',0.47574588656425476,0.47574588656425476,0.0,16.0
Neutral,stimuli/27M_NE_C.BMP,stimuli/26M_NE_C.BMP,stimuli/27M_NE_C.BMP,stimuli/EmptyFrame.bmp,stimuli/RedFrame.bmp,2,Neutral,Male,3,1,1.0,83.5004653930664,83.5004653930664,0.0,87.48828887939453,87.48828887939453,0.0,86.50718688964844,86.50718688964844,0.0,1.0,1.0,0.0,'2',0.5442243814468384,0.5442243814468384,0.0,17.0
Neutral,stimuli/28M_NE_C.BMP,stimuli/28M_NE_C.BMP,stimuli/25M_NE_C.BMP,stimuli/EmptyFrame.bmp,stimuli/RedFrame.bmp,1,Neutral,Male,3,1,1.0,87.5105209350586,87.5105209350586,0.0,91.50663757324219,91.50663757324219,0.0,90.52351379394531,90.52351379394531,0.0,1.0,1.0,0.0,'1',0.6169195175170898,0.6169195175170898,0.0,18.0
Neutral,stimuli/10F_NE_C.BMP,stimuli/11F_NE_C.BMP,stimuli/10F_NE_C.BMP,stimuli/EmptyFrame.bmp,stimuli/RedFrame.bmp,2,Neutral,Female,3,1,1.0,91.53739929199219,91.53739929199219,0.0,95.53457641601562,95.53457641601562,0.0,94.54048919677734,94.54048919677734,0.0,1.0,1.0,0.0,'2',0.5341007113456726,0.5341007113456726,0.0,19.0
Neutral,stimuli/29M_NE_C.BMP,stimuli/29M_NE_C.BMP,stimuli/24M_NE_C.BMP,stimuli/EmptyFrame.bmp,stimuli/RedFrame.bmp,1,Neutral,Male,3,1,1.0,95.56581115722656,95.56581115722656,0.0,99.56877899169922,99.56877899169922,0.0,98.60736846923828,98.60736846923828,0.0,1.0,1.0,0.0,'1',0.5465052127838135,0.5465052127838135,0.0,20.0
Neutral,stimuli/11F_NE_C.BMP,stimuli/10F_NE_C.BMP,stimuli/11F_NE_C.BMP,stimuli/EmptyFrame.bmp,stimuli/RedFrame.bmp,2,Neutral,Female,3,1,1.0,99.60346984863281,99.60346984863281,0.0,103.58568572998047,103.58568572998047,0.0,102.61449432373047,102.61449432373047,0.0,1.0,1.0,0.0,'2',0.4897870123386383,0.4897870123386383,0.0,21.0
MatchShape,stimuli/MatchShapes.bmp,stimuli/EmptyFace.bmp,stimuli/EmptyFace.bmp,stimuli/EmptyFrame.bmp,stimuli/EmptyFrame.bmp,Null,None,None,3,1,1.0,103.62261199951172,103.62261199951172,0.0,107.58981323242188,107.58981323242188,0.0,106.60309600830078,106.60309600830078,0.0,0.0,0.0,0.0,,,,,22.0
Shape,stimuli/circle.bmp,stimuli/vertical.bmp,stimuli/circle.bmp,stimuli/EmptyFrame.bmp,stimuli/RedFrame.bmp,2,Shape,None,3,1,1.0,107.632080078125,107.632080078125,0.0,111.6208724975586,111.6208724975586,0.0,110.62669372558594,110.62669372558594,0.0,1.0,1.0,0.0,'2',0.722791314125061,0.722791314125061,0.0,23.0
Shape,stimuli/horizontal.bmp,stimuli/circle.bmp,stimuli/horizontal.bmp,stimuli/EmptyFrame.bmp,stimuli/RedFrame.bmp,2,Shape,None,3,1,1.0,111.65608978271484,111.65608978271484,0.0,115.63468933105469,115.63468933105469,0.0,114.64586639404297,114.64586639404297,0.0,1.0,1.0,0.0,'2',0.6014664769172668,0.6014664769172668,0.0,24.0
Shape,stimuli/circle.bmp,stimuli/vertical.bmp,stimuli/circle.bmp,stimuli/EmptyFrame.bmp,stimuli/RedFrame.bmp,2,Shape,None,3,1,1.0,115.66383361816406,115.66383361816406,0.0,119.6565933227539,119.6565933227539,0.0,118.66413116455078,118.66413116455078,0.0,1.0,1.0,0.0,'2',0.5196306109428406,0.5196306109428406,0.0,25.0
Shape,stimuli/vertical.bmp,stimuli/circle.bmp,stimuli/vertical.bmp,stimuli/EmptyFrame.bmp,stimuli/RedFrame.bmp,2,Shape,None,3,1,1.0,119.68324279785156,119.68324279785156,0.0,123.668212890625,123.668212890625,0.0,122.6930923461914,122.6930923461914,0.0,1.0,1.0,0.0,'2',0.5007814764976501,0.5007814764976501,0.0,26.0
Shape,stimuli/vertical.bmp,stimuli/horizontal.bmp,stimuli/vertical.bmp,stimuli/EmptyFrame.bmp,stimuli/RedFrame.bmp,2,Shape,None,3,1,1.0,123.69473266601562,123.69473266601562,0.0,127.68766021728516,127.68766021728516,0.0,126.72924041748047,126.72924041748047,0.0,1.0,1.0,0.0,'2',0.4772931933403015,0.4772931933403015,0.0,27.0
Shape,stimuli/horizontal.bmp,stimuli/horizontal.bmp,stimuli/vertical.bmp,stimuli/EmptyFrame.bmp,stimuli/RedFrame.bmp,1,Shape,None,3,1,1.0,127.71577453613281,127.71577453613281,0.0,131.70455932617188,131.70455932617188,0.0,130.7327880859375,130.7327880859375,0.0,1.0,1.0,0.0,'1',1.0863076448440552,1.0863076448440552,0.0,28.0
Shape,stimuli/horizontal.bmp,stimuli/circle.bmp,stimuli/horizontal.bmp,stimuli/EmptyFrame.bmp,stimuli/RedFrame.bmp,2,Shape,None,3,1,1.0,131.73611450195312,131.73611450195312,0.0,135.7547149658203,135.7547149658203,0.0,134.740478515625,134.740478515625,0.0,1.0,1.0,0.0,'2',0.5376225709915161,0.5376225709915161,0.0,29.0
Shape,stimuli/circle.bmp,stimuli/circle.bmp,stimuli/vertical.bmp,stimuli/EmptyFrame.bmp,stimuli/RedFrame.bmp,1,Shape,None,3,1,1.0,135.7938690185547,135.7938690185547,0.0,139.78184509277344,139.78184509277344,0.0,138.78431701660156,138.78431701660156,0.0,1.0,1.0,0.0,'1',0.5421869158744812,0.5421869158744812,0.0,30.0
Shape,stimuli/vertical.bmp,stimuli/horizontal.bmp,stimuli/vertical.bmp,stimuli/EmptyFrame.bmp,stimuli/RedFrame.bmp,2,Shape,None,3,1,1.0,139.81878662109375,139.81878662109375,0.0,143.80690002441406,143.80690002441406,0.0,142.81759643554688,142.81759643554688,0.0,1.0,1.0,0.0,'2',0.46819910407066345,0.46819910407066345,0.0,31.0
Shape,stimuli/vertical.bmp,stimuli/vertical.bmp,stimuli/horizontal.bmp,stimuli/EmptyFrame.bmp,stimuli/RedFrame.bmp,1,Shape,None,3,1,1.0,143.83457946777344,143.83457946777344,0.0,147.83294677734375,147.83294677734375,0.0,146.85061645507812,146.85061645507812,0.0,0.0,0.0,0.0,'2',0.46404320001602173,0.46404320001602173,0.0,32.0
MatchFaces,stimuli/MatchFaces.bmp,stimuli/EmptyFace.bmp,stimuli/EmptyFace.bmp,stimuli/EmptyFrame.bmp,stimuli/EmptyFrame.bmp,Null,None,None,3,1,1.0,148.29808044433594,148.29808044433594,0.0,151.8394775390625,151.8394775390625,0.0,150.85134887695312,150.85134887695312,0.0,0.0,0.0,0.0,,,,,33.0
Anger,stimuli/20M_AN_O.BMP,stimuli/34M_AN_O.BMP,stimuli/20M_AN_O.BMP,stimuli/EmptyFrame.bmp,stimuli/RedFrame.bmp,2,Anger,Male,3,1,1.0,152.16334533691406,152.16334533691406,0.0,155.86306762695312,155.86306762695312,0.0,154.8685302734375,154.8685302734375,0.0,1.0,1.0,0.0,'2',1.0586005449295044,1.0586005449295044,0.0,34.0
Anger,stimuli/01F_AN_O.bmp,stimuli/19F_AN_O.BMP,stimuli/01F_AN_O.bmp,stimuli/EmptyFrame.bmp,stimuli/RedFrame.bmp,2,Anger,Female,3,1,1.0,155.90072631835938,155.90072631835938,0.0,159.8845672607422,159.8845672607422,0.0,158.89085388183594,158.89085388183594,0.0,1.0,1.0,0.0,'2',0.694015383720398,0.694015383720398,0.0,35.0
Anger,stimuli/06F_AN_O.bmp,stimuli/15F_AN_O.BMP,stimuli/06F_AN_O.bmp,stimuli/EmptyFrame.bmp,stimuli/RedFrame.bmp,2,Anger,Female,3,1,1.0,159.91932678222656,159.91932678222656,0.0,163.90231323242188,163.90231323242188,0.0,162.9129638671875,162.9129638671875,0.0,1.0,1.0,0.0,'2',0.8026629090309143,0.8026629090309143,0.0,36.0
Anger,stimuli/42M_AN_O.BMP,stimuli/42M_AN_O.BMP,stimuli/43M_AN_O.BMP,stimuli/EmptyFrame.bmp,stimuli/RedFrame.bmp,1,Anger,Male,3,1,1.0,163.937744140625,163.937744140625,0.0,167.9297332763672,167.9297332763672,0.0,166.94578552246094,166.94578552246094,0.0,1.0,1.0,0.0,'1',0.7547705769538879,0.7547705769538879,0.0,37.0
Anger,stimuli/40M_AN_O.BMP,stimuli/41M_AN_O.BMP,stimuli/40M_AN_O.BMP,stimuli/EmptyFrame.bmp,stimuli/RedFrame.bmp,2,Anger,Male,3,1,1.0,167.96530151367188,167.96530151367188,0.0,171.97860717773438,171.97860717773438,0.0,171.0608673095703,171.0608673095703,0.0,1.0,1.0,0.0,'2',0.8295361995697021,0.8295361995697021,0.0,38.0
Anger,stimuli/08F_AN_O.BMP,stimuli/08F_AN_O.BMP,stimuli/13F_AN_O.BMP,stimuli/EmptyFrame.bmp,stimuli/RedFrame.bmp,1,Anger,Female,3,1,1.0,172.0386199951172,172.0386199951172,0.0,176.02883911132812,176.02883911132812,0.0,175.0107421875,175.0107421875,0.0,1.0,1.0,0.0,'1',0.7255272269248962,0.7255272269248962,0.0,39.0
Anger,stimuli/09F_AN_O.BMP,stimuli/12F_AN_O.BMP,stimuli/09F_AN_O.BMP,stimuli/EmptyFrame.bmp,stimuli/RedFrame.bmp,2,Anger,Female,3,1,1.0,176.0956573486328,176.0956573486328,0.0,180.05677795410156,180.05677795410156,0.0,179.05967712402344,179.05967712402344,0.0,1.0,1.0,0.0,'2',0.7628991007804871,0.7628991007804871,0.0,40.0
Anger,stimuli/34M_AN_O.BMP,stimuli/35M_AN_O.BMP,stimuli/34M_AN_O.BMP,stimuli/EmptyFrame.bmp,stimuli/RedFrame.bmp,2,Anger,Male,3,1,1.0,180.0888214111328,180.0888214111328,0.0,184.07958984375,184.07958984375,0.0,183.13851928710938,183.13851928710938,0.0,1.0,1.0,0.0,'2',0.7586374878883362,0.7586374878883362,0.0,41.0
Anger,stimuli/24M_AN_O.BMP,stimuli/24M_AN_O.BMP,stimuli/30M_AN_O.BMP,stimuli/EmptyFrame.bmp,stimuli/RedFrame.bmp,1,Anger,Male,3,1,1.0,184.11875915527344,184.11875915527344,0.0,188.0954132080078,188.0954132080078,0.0,187.1182861328125,187.1182861328125,0.0,1.0,1.0,0.0,'1',0.7759562730789185,0.7759562730789185,0.0,42.0
Anger,stimuli/03F_AN_O.bmp,stimuli/03F_AN_O.bmp,stimuli/17F_AN_O.BMP,stimuli/EmptyFrame.bmp,stimuli/RedFrame.bmp,1,Anger,Female,3,1,1.0,188.14968872070312,188.14968872070312,0.0,192.12086486816406,192.12086486816406,0.0,191.1336212158203,191.1336212158203,0.0,1.0,1.0,0.0,'1',0.7624678015708923,0.7624678015708923,0.0,43.0
MatchFaces,stimuli/MatchFaces.bmp,stimuli/EmptyFace.bmp,stimuli/EmptyFace.bmp,stimuli/EmptyFrame.bmp,stimuli/EmptyFrame.bmp,Null,None,None,3,1,1.0,192.41134643554688,192.41134643554688,0.0,196.12351989746094,196.12351989746094,0.0,195.12774658203125,195.12774658203125,0.0,0.0,0.0,0.0,,,,,44.0
Happy,stimuli/06F_HA_O.bmp,stimuli/07F_HA_O.BMP,stimuli/06F_HA_O.bmp,stimuli/EmptyFrame.bmp,stimuli/RedFrame.bmp,2,Happy,Female,3,1,1.0,196.44471740722656,196.44471740722656,0.0,200.1432342529297,200.1432342529297,0.0,199.16647338867188,199.16647338867188,0.0,1.0,1.0,0.0,'2',0.8409454226493835,0.8409454226493835,0.0,45.0
Happy,stimuli/13F_HA_O.BMP,stimuli/13F_HA_O.BMP,stimuli/12F_HA_O.BMP,stimuli/EmptyFrame.bmp,stimuli/RedFrame.bmp,1,Happy,Female,3,1,1.0,200.1819610595703,200.1819610595703,0.0,204.16722106933594,204.16722106933594,0.0,203.18185424804688,203.18185424804688,0.0,1.0,1.0,0.0,'1',0.6561390161514282,0.6561390161514282,0.0,46.0
Happy,stimuli/41M_HA_O.BMP,stimuli/41M_HA_O.BMP,stimuli/40M_HA_O.BMP,stimuli/EmptyFrame.bmp,stimuli/RedFrame.bmp,1,Happy,Male,3,1,1.0,204.1997528076172,204.1997528076172,0.0,208.18568420410156,208.18568420410156,0.0,207.19635009765625,207.19635009765625,0.0,1.0,1.0,0.0,'1',0.6084741950035095,0.6084741950035095,0.0,47.0
Happy,stimuli/03F_HA_O.bmp,stimuli/05F_HA_O.bmp,stimuli/03F_HA_O.bmp,stimuli/EmptyFrame.bmp,stimuli/RedFrame.bmp,2,Happy,Female,3,1,1.0,208.22328186035156,208.22328186035156,0.0,212.2099151611328,212.2099151611328,0.0,211.24754333496094,211.24754333496094,0.0,1.0,1.0,0.0,'2',0.700791597366333,0.700791597366333,0.0,48.0
Happy,stimuli/24M_HA_O.BMP,stimuli/24M_HA_O.BMP,stimuli/25M_HA_O.BMP,stimuli/EmptyFrame.bmp,stimuli/RedFrame.bmp,1,Happy,Male,3,1,1.0,212.24464416503906,212.24464416503906,0.0,216.23275756835938,216.23275756835938,0.0,215.2501678466797,215.2501678466797,0.0,1.0,1.0,0.0,'1',0.7783188223838806,0.7783188223838806,0.0,49.0
Happy,stimuli/19F_HA_O.BMP,stimuli/19F_HA_O.BMP,stimuli/18F_HA_O.BMP,stimuli/EmptyFrame.bmp,stimuli/RedFrame.bmp,1,Happy,Female,3,1,1.0,216.2666778564453,216.2666778564453,0.0,220.24681091308594,220.24681091308594,0.0,219.2653045654297,219.2653045654297,0.0,1.0,1.0,0.0,'1',0.77601557970047,0.77601557970047,0.0,50.0
Happy,stimuli/01F_HA_O.bmp,stimuli/01F_HA_O.bmp,stimuli/02F_HA_O.bmp,stimuli/EmptyFrame.bmp,stimuli/RedFrame.bmp,1,Happy,Female,3,1,1.0,220.31845092773438,220.31845092773438,0.0,224.25755310058594,224.25755310058594,0.0,223.2896270751953,223.2896270751953,0.0,1.0,1.0,0.0,'1',0.6826764941215515,0.6826764941215515,0.0,51.0
Happy,stimuli/22M_HA_O.BMP,stimuli/23M_HA_O.BMP,stimuli/22M_HA_O.BMP,stimuli/EmptyFrame.bmp,stimuli/RedFrame.bmp,2,Happy,Male,3,1,1.0,224.30361938476562,224.30361938476562,0.0,228.2888641357422,228.2888641357422,0.0,227.30577087402344,227.30577087402344,0.0,1.0,1.0,0.0,'2',1.1521695852279663,1.1521695852279663,0.0,52.0
Happy,stimuli/35M_HA_O.BMP,stimuli/34M_HA_O.BMP,stimuli/35M_HA_O.BMP,stimuli/EmptyFrame.bmp,stimuli/RedFrame.bmp,2,Happy,Male,3,1,1.0,228.32861328125,228.32861328125,0.0,232.30609130859375,232.30609130859375,0.0,231.34765625,231.34765625,0.0,1.0,1.0,0.0,'2',0.7472730875015259,0.7472730875015259,0.0,53.0
Happy,stimuli/39M_HA_O.BMP,stimuli/38M_HA_O.BMP,stimuli/39M_HA_O.BMP,stimuli/EmptyFrame.bmp,stimuli/RedFrame.bmp,2,Happy,Male,3,1,1.0,232.35433959960938,232.35433959960938,0.0,236.35012817382812,236.35012817382812,0.0,235.35879516601562,235.35879516601562,0.0,1.0,1.0,0.0,'2',0.6032800078392029,0.6032800078392029,0.0,54.0
Match Shape,stimuli/MatchShapes.bmp,stimuli/EmptyFace.bmp,stimuli/EmptyFace.bmp,stimuli/EmptyFrame.bmp,stimuli/EmptyFrame.bmp,Null,None,None,3,1,1.0,236.38099670410156,236.38099670410156,0.0,240.359375,240.359375,0.0,239.3687744140625,239.3687744140625,0.0,0.0,0.0,0.0,,,,,55.0
Shape,stimuli/horizontal.bmp,stimuli/horizontal.bmp,stimuli/vertical.bmp,stimuli/EmptyFrame.bmp,stimuli/RedFrame.bmp,1,Shape,None,3,1,1.0,240.42115783691406,240.42115783691406,0.0,244.3758544921875,244.3758544921875,0.0,243.39205932617188,243.39205932617188,0.0,1.0,1.0,0.0,'1',0.9020847082138062,0.9020847082138062,0.0,56.0
Shape,stimuli/horizontal.bmp,stimuli/horizontal.bmp,stimuli/circle.bmp,stimuli/EmptyFrame.bmp,stimuli/RedFrame.bmp,1,Shape,None,3,1,1.0,244.40464782714844,244.40464782714844,0.0,248.39450073242188,248.39450073242188,0.0,247.42239379882812,247.42239379882812,0.0,1.0,1.0,0.0,'1',0.7370826005935669,0.7370826005935669,0.0,57.0
Shape,stimuli/circle.bmp,stimuli/vertical.bmp,stimuli/circle.bmp,stimuli/EmptyFrame.bmp,stimuli/RedFrame.bmp,2,Shape,None,3,1,1.0,248.42254638671875,248.42254638671875,0.0,252.4139862060547,252.4139862060547,0.0,251.4579620361328,251.4579620361328,0.0,1.0,1.0,0.0,'2',0.5867918729782104,0.5867918729782104,0.0,58.0
Shape,stimuli/vertical.bmp,stimuli/vertical.bmp,stimuli/circle.bmp,stimuli/EmptyFrame.bmp,stimuli/RedFrame.bmp,1,Shape,None,3,1,1.0,252.44482421875,252.44482421875,0.0,256.4406433105469,256.4406433105469,0.0,255.45286560058594,255.45286560058594,0.0,1.0,1.0,0.0,'1',0.7459818124771118,0.7459818124771118,0.0,59.0
Shape,stimuli/horizontal.bmp,stimuli/horizontal.bmp,stimuli/circle.bmp,stimuli/EmptyFrame.bmp,stimuli/RedFrame.bmp,1,Shape,None,3,1,1.0,256.4702453613281,256.4702453613281,0.0,260.4781494140625,260.4781494140625,0.0,259.4809265136719,259.4809265136719,0.0,1.0,1.0,0.0,'1',0.9266905784606934,0.9266905784606934,0.0,60.0
Shape,stimuli/vertical.bmp,stimuli/vertical.bmp,stimuli/circle.bmp,stimuli/EmptyFrame.bmp,stimuli/RedFrame.bmp,1,Shape,None,3,1,1.0,260.50469970703125,260.50469970703125,0.0,264.49322509765625,264.49322509765625,0.0,263.51788330078125,263.51788330078125,0.0,1.0,1.0,0.0,'1',0.6984763145446777,0.6984763145446777,0.0,61.0
Shape,stimuli/horizontal.bmp,stimuli/circle.bmp,stimuli/horizontal.bmp,stimuli/EmptyFrame.bmp,stimuli/RedFrame.bmp,2,Shape,None,3,1,1.0,264.52227783203125,264.52227783203125,0.0,268.5075988769531,268.5075988769531,0.0,267.53216552734375,267.53216552734375,0.0,1.0,1.0,0.0,'2',0.810798704624176,0.810798704624176,0.0,62.0
Shape,stimuli/circle.bmp,stimuli/circle.bmp,stimuli/horizontal.bmp,stimuli/EmptyFrame.bmp,stimuli/RedFrame.bmp,1,Shape,None,3,1,1.0,268.5387268066406,268.5387268066406,0.0,272.58209228515625,272.58209228515625,0.0,271.5356140136719,271.5356140136719,0.0,1.0,1.0,0.0,'1',0.7635443210601807,0.7635443210601807,0.0,63.0
Shape,stimuli/circle.bmp,stimuli/horizontal.bmp,stimuli/circle.bmp,stimuli/EmptyFrame.bmp,stimuli/RedFrame.bmp,2,Shape,None,3,1,1.0,272.6301574707031,272.6301574707031,0.0,276.602783203125,276.602783203125,0.0,275.6152038574219,275.6152038574219,0.0,1.0,1.0,0.0,'2',0.7565608024597168,0.7565608024597168,0.0,64.0
Shape,stimuli/vertical.bmp,stimuli/vertical.bmp,stimuli/horizontal.bmp,stimuli/EmptyFrame.bmp,stimuli/RedFrame.bmp,1,Shape,None,3,1,1.0,276.6292724609375,276.6292724609375,0.0,280.6268005371094,280.6268005371094,0.0,279.6458435058594,279.6458435058594,0.0,1.0,1.0,0.0,'1',1.1902352571487427,1.1902352571487427,0.0,65.0
MatchFaces,stimuli/MatchFaces.bmp,stimuli/EmptyFace.bmp,stimuli/EmptyFace.bmp,stimuli/EmptyFrame.bmp,stimuli/EmptyFrame.bmp,Null,None,None,3,1,1.0,281.01580810546875,281.01580810546875,0.0,284.63641357421875,284.63641357421875,0.0,283.6406555175781,283.6406555175781,0.0,0.0,0.0,0.0,,,,,66.0
Neutral,stimuli/20M_NE_C.BMP,stimuli/21M_NE_C.BMP,stimuli/20M_NE_C.BMP,stimuli/EmptyFrame.bmp,stimuli/RedFrame.bmp,2,Neutral,Male,3,1,1.0,284.8209228515625,284.8209228515625,0.0,288.652587890625,288.652587890625,0.0,287.6793518066406,287.6793518066406,0.0,1.0,1.0,0.0,'2',0.8811957240104675,0.8811957240104675,0.0,67.0
Neutral,stimuli/01F_NE_C.bmp,stimuli/01F_NE_C.bmp,stimuli/02F_NE_C.bmp,stimuli/EmptyFrame.bmp,stimuli/RedFrame.bmp,1,Neutral,Female,3,1,1.0,288.6884460449219,288.6884460449219,0.0,292.6729431152344,292.6729431152344,0.0,291.69024658203125,291.69024658203125,0.0,1.0,1.0,0.0,'1',0.6003307104110718,0.6003307104110718,0.0,68.0
Neutral,stimuli/22M_NE_C.BMP,stimuli/23M_NE_C.BMP,stimuli/22M_NE_C.BMP,stimuli/EmptyFrame.bmp,stimuli/RedFrame.bmp,2,Neutral,Male,3,1,1.0,292.7107238769531,292.7107238769531,0.0,296.72662353515625,296.72662353515625,0.0,295.748779296875,295.748779296875,0.0,1.0,1.0,0.0,'2',1.2054747343063354,1.2054747343063354,0.0,69.0
Neutral,stimuli/24M_NE_C.BMP,stimuli/24M_NE_C.BMP,stimuli/25M_NE_C.BMP,stimuli/EmptyFrame.bmp,stimuli/RedFrame.bmp,1,Neutral,Male,3,1,1.0,296.7840270996094,296.7840270996094,0.0,300.74237060546875,300.74237060546875,0.0,299.7561340332031,299.7561340332031,0.0,1.0,1.0,0.0,'1',0.8556622862815857,0.8556622862815857,0.0,70.0
Neutral,stimuli/03F_NE_C.bmp,stimuli/05F_NE_C.bmp,stimuli/03F_NE_C.bmp,stimuli/EmptyFrame.bmp,stimuli/RedFrame.bmp,2,Neutral,Female,3,1,1.0,300.7764587402344,300.7764587402344,0.0,304.7628173828125,304.7628173828125,0.0,303.7767333984375,303.7767333984375,0.0,1.0,1.0,0.0,'2',0.7418506741523743,0.7418506741523743,0.0,71.0
Neutral,stimuli/26M_NE_C.BMP,stimuli/26M_NE_C.BMP,stimuli/27M_NE_C.BMP,stimuli/EmptyFrame.bmp,stimuli/RedFrame.bmp,1,Neutral,Male,3,1,1.0,304.78924560546875,304.78924560546875,0.0,308.7861633300781,308.7861633300781,0.0,307.80303955078125,307.80303955078125,0.0,1.0,1.0,0.0,'1',0.7164803147315979,0.7164803147315979,0.0,72.0
Neutral,stimuli/06F_NE_C.bmp,stimuli/07F_NE_C.BMP,stimuli/06F_NE_C.bmp,stimuli/EmptyFrame.bmp,stimuli/RedFrame.bmp,2,Neutral,Female,3,1,1.0,308.8130798339844,308.8130798339844,0.0,312.8023681640625,312.8023681640625,0.0,311.828369140625,311.828369140625,0.0,1.0,1.0,0.0,'2',0.8988193869590759,0.8988193869590759,0.0,73.0
Neutral,stimuli/08F_NE_C.BMP,stimuli/08F_NE_C.BMP,stimuli/09F_NE_C.BMP,stimuli/EmptyFrame.bmp,stimuli/RedFrame.bmp,1,Neutral,Female,3,1,1.0,312.8276672363281,312.8276672363281,0.0,316.8404541015625,316.8404541015625,0.0,315.8294677734375,315.8294677734375,0.0,1.0,1.0,0.0,'1',0.8600527048110962,0.8600527048110962,0.0,74.0
Neutral,stimuli/28M_NE_C.BMP,stimuli/29M_NE_C.BMP,stimuli/28M_NE_C.BMP,stimuli/EmptyFrame.bmp,stimuli/RedFrame.bmp,2,Neutral,Male,3,1,1.0,316.89306640625,316.89306640625,0.0,320.85821533203125,320.85821533203125,0.0,319.89776611328125,319.89776611328125,0.0,1.0,1.0,0.0,'2',0.7103455066680908,0.7103455066680908,0.0,75.0
Neutral,stimuli/10F_NE_C.BMP,stimuli/10F_NE_C.BMP,stimuli/06F_NE_C.bmp,stimuli/EmptyFrame.bmp,stimuli/RedFrame.bmp,1,Neutral,Female,3,1,1.0,320.90252685546875,320.90252685546875,0.0,324.87908935546875,324.87908935546875,0.0,323.9002685546875,323.9002685546875,0.0,1.0,1.0,0.0,'1',0.7301827073097229,0.7301827073097229,0.0,76.0
MatchFaces,stimuli/MatchFaces.bmp,stimuli/EmptyFace.bmp,stimuli/EmptyFace.bmp,stimuli/EmptyFrame.bmp,stimuli/EmptyFrame.bmp,Null,None,None,3,1,1.0,325.33660888671875,325.33660888671875,0.0,328.8876953125,328.8876953125,0.0,327.89825439453125,327.89825439453125,0.0,0.0,0.0,0.0,,,,,77.0
Happy,stimuli/28M_HA_O.BMP,stimuli/29M_HA_O.BMP,stimuli/28M_HA_O.BMP,stimuli/EmptyFrame.bmp,stimuli/RedFrame.bmp,2,Happy,Male,3,1,1.0,329.13189697265625,329.13189697265625,0.0,332.902587890625,332.902587890625,0.0,331.93414306640625,331.93414306640625,0.0,1.0,1.0,0.0,'2',1.3714723587036133,1.3714723587036133,0.0,78.0
Happy,stimuli/10F_HA_O.BMP,stimuli/10F_HA_O.BMP,stimuli/06F_HA_O.bmp,stimuli/EmptyFrame.bmp,stimuli/RedFrame.bmp,1,Happy,Female,3,1,1.0,332.93560791015625,332.93560791015625,0.0,336.94476318359375,336.94476318359375,0.0,335.98040771484375,335.98040771484375,0.0,1.0,1.0,0.0,'1',0.8296985030174255,0.8296985030174255,0.0,79.0
Happy,stimuli/26M_HA_O.BMP,stimuli/26M_HA_O.BMP,stimuli/27M_HA_O.BMP,stimuli/EmptyFrame.bmp,stimuli/RedFrame.bmp,1,Happy,Male,3,1,1.0,336.9965515136719,336.9965515136719,0.0,340.9587707519531,340.9587707519531,0.0,339.98468017578125,339.98468017578125,0.0,1.0,1.0,0.0,'1',0.809144914150238,0.809144914150238,0.0,80.0
Happy,stimuli/20M_HA_O.BMP,stimuli/21M_HA_O.BMP,stimuli/20M_HA_O.BMP,stimuli/EmptyFrame.bmp,stimuli/RedFrame.bmp,2,Happy,Male,3,1,1.0,340.9942626953125,340.9942626953125,0.0,344.9788818359375,344.9788818359375,0.0,344.00054931640625,344.00054931640625,0.0,1.0,1.0,0.0,'2',1.375007152557373,1.375007152557373,0.0,81.0
Happy,stimuli/37M_HA_O.BMP,stimuli/37M_HA_O.BMP,stimuli/36M_HA_O.BMP,stimuli/EmptyFrame.bmp,stimuli/RedFrame.bmp,1,Happy,Male,3,1,1.0,345.01116943359375,345.01116943359375,0.0,348.99859619140625,348.99859619140625,0.0,348.151611328125,348.151611328125,0.0,1.0,1.0,0.0,'1',1.0097177028656006,1.0097177028656006,0.0,82.0
Happy,stimuli/43M_HA_O.BMP,stimuli/42M_HA_O.BMP,stimuli/43M_HA_O.BMP,stimuli/EmptyFrame.bmp,stimuli/RedFrame.bmp,2,Happy,Male,3,1,1.0,349.03179931640625,349.03179931640625,0.0,353.017578125,353.017578125,0.0,352.03436279296875,352.03436279296875,0.0,1.0,1.0,0.0,'2',1.472038745880127,1.472038745880127,0.0,83.0
Happy,stimuli/11F_HA_O.BMP,stimuli/10F_HA_O.BMP,stimuli/11F_HA_O.BMP,stimuli/EmptyFrame.bmp,stimuli/RedFrame.bmp,2,Happy,Female,3,1,1.0,353.0511779785156,353.0511779785156,0.0,357.0712890625,357.0712890625,0.0,356.073486328125,356.073486328125,0.0,1.0,1.0,0.0,'2',0.7176864743232727,0.7176864743232727,0.0,84.0
Happy,stimuli/17F_HA_O.BMP,stimuli/16F_HA_O.BMP,stimuli/17F_HA_O.BMP,stimuli/EmptyFrame.bmp,stimuli/RedFrame.bmp,2,Happy,Female,3,1,1.0,357.129638671875,357.129638671875,0.0,361.15692138671875,361.15692138671875,0.0,360.0971374511719,360.0971374511719,0.0,1.0,1.0,0.0,'2',1.0913972854614258,1.0913972854614258,0.0,85.0
Happy,stimuli/15F_HA_O.BMP,stimuli/15F_HA_O.BMP,stimuli/14F_HA_O.BMP,stimuli/EmptyFrame.bmp,stimuli/RedFrame.bmp,1,Happy,Female,3,1,1.0,361.19189453125,361.19189453125,0.0,365.1905822753906,365.1905822753906,0.0,364.2289733886719,364.2289733886719,0.0,1.0,1.0,0.0,'1',1.1289490461349487,1.1289490461349487,0.0,86.0
Happy,stimuli/08F_HA_O.BMP,stimuli/08F_HA_O.BMP,stimuli/09F_HA_O.BMP,stimuli/EmptyFrame.bmp,stimuli/RedFrame.bmp,1,Happy,Female,3,1,1.0,365.23828125,365.23828125,0.0,369.21343994140625,369.21343994140625,0.0,368.23370361328125,368.23370361328125,0.0,1.0,1.0,0.0,'1',1.437440037727356,1.437440037727356,0.0,87.0
MatchFaces,stimuli/MatchFaces.bmp,stimuli/EmptyFace.bmp,stimuli/EmptyFace.bmp,stimuli/EmptyFrame.bmp,stimuli/EmptyFrame.bmp,Null,None,None,3,1,1.0,369.67974853515625,369.67974853515625,0.0,373.2151794433594,373.2151794433594,0.0,372.22613525390625,372.22613525390625,0.0,0.0,0.0,0.0,,,,,88.0
Fear,stimuli/34M_FE_O.BMP,stimuli/34M_FE_O.BMP,stimuli/33M_FE_O.BMP,stimuli/EmptyFrame.bmp,stimuli/RedFrame.bmp,1,Fear,Male,3,1,1.0,373.5652160644531,373.5652160644531,0.0,377.23382568359375,377.23382568359375,0.0,376.25433349609375,376.25433349609375,0.0,1.0,1.0,0.0,'1',1.0491464138031006,1.0491464138031006,0.0,89.0
Fear,stimuli/28M_FE_O.BMP,stimuli/28M_FE_O.BMP,stimuli/25M_FE_O.BMP,stimuli/EmptyFrame.bmp,stimuli/RedFrame.bmp,1,Fear,Male,3,1,1.0,377.264404296875,377.264404296875,0.0,381.26025390625,381.26025390625,0.0,380.2723693847656,380.2723693847656,0.0,1.0,1.0,0.0,'1',1.2999062538146973,1.2999062538146973,0.0,90.0
Fear,stimuli/11F_FE_O.BMP,stimuli/10F_FE_O.BMP,stimuli/11F_FE_O.BMP,stimuli/EmptyFrame.bmp,stimuli/RedFrame.bmp,2,Fear,Female,3,1,1.0,381.29144287109375,381.29144287109375,0.0,385.2826843261719,385.2826843261719,0.0,384.29345703125,384.29345703125,0.0,1.0,1.0,0.0,'2',0.9498329758644104,0.9498329758644104,0.0,91.0
Fear,stimuli/27M_FE_O.BMP,stimuli/26M_FE_O.BMP,stimuli/27M_FE_O.BMP,stimuli/EmptyFrame.bmp,stimuli/RedFrame.bmp,2,Fear,Male,3,1,1.0,385.3153381347656,385.3153381347656,0.0,389.2978820800781,389.2978820800781,0.0,388.34881591796875,388.34881591796875,0.0,1.0,1.0,0.0,'2',0.8929452896118164,0.8929452896118164,0.0,92.0
Fear,stimuli/11F_FE_O.BMP,stimuli/12F_FE_O.BMP,stimuli/11F_FE_O.BMP,stimuli/EmptyFrame.bmp,stimuli/RedFrame.bmp,2,Fear,Female,3,1,1.0,389.32977294921875,389.32977294921875,0.0,393.31103515625,393.31103515625,0.0,392.32623291015625,392.32623291015625,0.0,1.0,1.0,0.0,'2',0.73885577917099,0.73885577917099,0.0,93.0
Fear,stimuli/31M_FE_O.BMP,stimuli/31M_FE_O.BMP,stimuli/38M_FE_O.BMP,stimuli/EmptyFrame.bmp,stimuli/RedFrame.bmp,1,Fear,Male,3,1,1.0,393.34576416015625,393.34576416015625,0.0,397.33331298828125,397.33331298828125,0.0,396.35498046875,396.35498046875,0.0,1.0,1.0,0.0,'1',1.0017637014389038,1.0017637014389038,0.0,94.0
Fear,stimuli/29M_FE_O.BMP,stimuli/29M_FE_O.BMP,stimuli/24M_FE_O.BMP,stimuli/EmptyFrame.bmp,stimuli/RedFrame.bmp,1,Fear,Male,3,1,1.0,397.3687438964844,397.3687438964844,0.0,401.35223388671875,401.35223388671875,0.0,400.3751220703125,400.3751220703125,0.0,1.0,1.0,0.0,'1',0.9220361709594727,0.9220361709594727,0.0,95.0
Fear,stimuli/25M_FE_O.BMP,stimuli/29M_FE_O.BMP,stimuli/25M_FE_O.BMP,stimuli/EmptyFrame.bmp,stimuli/RedFrame.bmp,2,Fear,Male,3,1,1.0,401.3785095214844,401.3785095214844,0.0,405.3800354003906,405.3800354003906,0.0,404.3940124511719,404.3940124511719,0.0,1.0,1.0,0.0,'2',0.7444148063659668,0.7444148063659668,0.0,96.0
Fear,stimuli/15F_FE_O.BMP,stimuli/18F_FE_O.BMP,stimuli/15F_FE_O.BMP,stimuli/EmptyFrame.bmp,stimuli/RedFrame.bmp,2,Fear,Female,3,1,1.0,405.412109375,405.412109375,0.0,409.3961181640625,409.3961181640625,0.0,408.4172668457031,408.4172668457031,0.0,1.0,1.0,0.0,'2',0.6203895211219788,0.6203895211219788,0.0,97.0
Fear,stimuli/09F_FE_O.BMP,stimuli/09F_FE_O.BMP,stimuli/12F_FE_O.BMP,stimuli/EmptyFrame.bmp,stimuli/RedFrame.bmp,1,Fear,Female,3,1,1.0,409.42333984375,409.42333984375,0.0,413.4078674316406,413.4078674316406,0.0,412.4426574707031,412.4426574707031,0.0,1.0,1.0,0.0,'1',0.5880994200706482,0.5880994200706482,0.0,98.0
MatchFaces,stimuli/MatchFaces.bmp,stimuli/EmptyFace.bmp,stimuli/EmptyFace.bmp,stimuli/EmptyFrame.bmp,stimuli/EmptyFrame.bmp,Null,None,None,3,1,1.0,413.6876220703125,413.6876220703125,0.0,417.4173889160156,417.4173889160156,0.0,416.42047119140625,416.42047119140625,0.0,0.0,0.0,0.0,,,,,99.0
Anger,stimuli/23M_AN_O.BMP,stimuli/23M_AN_O.BMP,stimuli/31M_AN_O.BMP,stimuli/EmptyFrame.bmp,stimuli/RedFrame.bmp,1,Anger,Male,3,1,1.0,417.72857666015625,417.72857666015625,0.0,421.4384765625,421.4384765625,0.0,420.4501647949219,420.4501647949219,0.0,1.0,1.0,0.0,'1',0.7317919135093689,0.7317919135093689,0.0,100.0
Anger,stimuli/36M_AN_O.BMP,stimuli/37M_AN_O.BMP,stimuli/36M_AN_O.BMP,stimuli/EmptyFrame.bmp,stimuli/RedFrame.bmp,2,Anger,Male,3,1,1.0,421.4781188964844,421.4781188964844,0.0,425.4613037109375,425.4613037109375,0.0,424.4704895019531,424.4704895019531,0.0,1.0,1.0,0.0,'2',1.2892742156982422,1.2892742156982422,0.0,101.0
Anger,stimuli/38M_AN_O.BMP,stimuli/39M_AN_O.BMP,stimuli/38M_AN_O.BMP,stimuli/EmptyFrame.bmp,stimuli/RedFrame.bmp,2,Anger,Male,3,1,1.0,425.50555419921875,425.50555419921875,0.0,429.4830627441406,429.4830627441406,0.0,428.4935302734375,428.4935302734375,0.0,1.0,1.0,0.0,'2',0.8800097703933716,0.8800097703933716,0.0,102.0
Anger,stimuli/02f_an_o.bmp,stimuli/18F_AN_O.BMP,stimuli/02f_an_o.bmp,stimuli/EmptyFrame.bmp,stimuli/RedFrame.bmp,2,Anger,Female,3,1,1.0,429.5287170410156,429.5287170410156,0.0,433.5010070800781,433.5010070800781,0.0,432.5709533691406,432.5709533691406,0.0,1.0,1.0,0.0,'2',0.8609523177146912,0.8609523177146912,0.0,103.0
Anger,stimuli/22M_AN_O.BMP,stimuli/32M_AN_O.BMP,stimuli/22M_AN_O.BMP,stimuli/EmptyFrame.bmp,stimuli/RedFrame.bmp,2,Anger,Male,3,1,1.0,433.53179931640625,433.53179931640625,0.0,437.515625,437.515625,0.0,436.5413818359375,436.5413818359375,0.0,1.0,1.0,0.0,'2',1.7953126430511475,1.7953126430511475,0.0,104.0
Anger,stimuli/12F_AN_O.BMP,stimuli/12F_AN_O.BMP,stimuli/13F_AN_O.BMP,stimuli/EmptyFrame.bmp,stimuli/RedFrame.bmp,1,Anger,Female,3,1,1.0,437.54119873046875,437.54119873046875,0.0,441.53350830078125,441.53350830078125,0.0,440.5547180175781,440.5547180175781,0.0,1.0,1.0,0.0,'1',0.8444507122039795,0.8444507122039795,0.0,105.0
Anger,stimuli/05F_AN_O.bmp,stimuli/05F_AN_O.bmp,stimuli/16F_AN_O.BMP,stimuli/EmptyFrame.bmp,stimuli/RedFrame.bmp,1,Anger,Female,3,1,1.0,441.57568359375,441.57568359375,0.0,445.5644836425781,445.5644836425781,0.0,444.62750244140625,444.62750244140625,0.0,1.0,1.0,0.0,'1',0.6209825873374939,0.6209825873374939,0.0,106.0
Anger,stimuli/21M_AN_O.BMP,stimuli/21M_AN_O.BMP,stimuli/33M_AN_O.BMP,stimuli/EmptyFrame.bmp,stimuli/RedFrame.bmp,1,Anger,Male,3,1,1.0,445.61126708984375,445.61126708984375,0.0,449.58148193359375,449.58148193359375,0.0,448.6197204589844,448.6197204589844,0.0,1.0,1.0,0.0,'1',0.7723187208175659,0.7723187208175659,0.0,107.0
Anger,stimuli/07F_AN_O.BMP,stimuli/07F_AN_O.BMP,stimuli/14F_AN_O.BMP,stimuli/EmptyFrame.bmp,stimuli/RedFrame.bmp,1,Anger,Female,3,1,1.0,449.6170959472656,449.6170959472656,0.0,453.6188659667969,453.6188659667969,0.0,452.6173400878906,452.6173400878906,0.0,1.0,1.0,0.0,'1',0.7450100779533386,0.7450100779533386,0.0,108.0
Anger,stimuli/10F_AN_O.BMP,stimuli/10F_AN_O.BMP,stimuli/11F_AN_O.BMP,stimuli/EmptyFrame.bmp,stimuli/RedFrame.bmp,1,Anger,Female,3,1,1.0,453.6953125,453.6953125,0.0,457.6383056640625,457.6383056640625,0.0,456.6573791503906,456.6573791503906,0.0,1.0,1.0,0.0,'1',1.2117193937301636,1.2117193937301636,0.0,109.0

extraInfo
participant,sub019
session,002
date,2025_Jul_16_0914
expName,HaririTask_Ver2
psychopyVersion,3.0.1
frameRate,None
