TrialType,Top,Left,Right,EmptyFrame,SelectedFrame,Correct,Emotion,Gender,TrialLength,FixationLength,n,GCFaceStartTime_mean,GCFaceStartTime_raw,GCFaceStartTime_std,GCPostFaceFixationEndTime_mean,GCPostFaceFixationEndTime_raw,GCPostFaceFixationEndTime_std,GCPostFaceFixationStartTime_mean,GCPostFaceFixationStartTime_raw,GCPostFaceFixationStartTime_std,key_resp_trial.corr_mean,key_resp_trial.corr_raw,key_resp_trial.corr_std,key_resp_trial.keys_raw,key_resp_trial.rt_mean,key_resp_trial.rt_raw,key_resp_trial.rt_std,order
MatchFaces,stimuli/MatchFaces.bmp,stimuli/EmptyFace.bmp,stimuli/EmptyFace.bmp,stimuli/EmptyFrame.bmp,stimuli/EmptyFrame.bmp,Null,None,None,3,1,1.0,15.283488273620605,15.283488273620605,0.0,19.052539825439453,19.052539825439453,0.0,18.063528060913086,18.063528060913086,0.0,0.0,0.0,0.0,,,,,0.0
Anger,stimuli/01F_AN_O.bmp,stimuli/19F_AN_O.BMP,stimuli/01F_AN_O.bmp,stimuli/EmptyFrame.bmp,stimuli/RedFrame.bmp,2,Anger,Female,3,1,1.0,19.23457908630371,19.23457908630371,0.0,23.073802947998047,23.073802947998047,0.0,22.086475372314453,22.086475372314453,0.0,1.0,1.0,0.0,'2',0.7258300185203552,0.7258300185203552,0.0,1.0
Anger,stimuli/02f_an_o.bmp,stimuli/18F_AN_O.BMP,stimuli/02f_an_o.bmp,stimuli/EmptyFrame.bmp,stimuli/RedFrame.bmp,2,Anger,Female,3,1,1.0,23.105247497558594,23.105247497558594,0.0,27.092815399169922,27.092815399169922,0.0,26.103403091430664,26.103403091430664,0.0,1.0,1.0,0.0,'2',0.7092489004135132,0.7092489004135132,0.0,2.0
Anger,stimuli/20M_AN_O.BMP,stimuli/34M_AN_O.BMP,stimuli/20M_AN_O.BMP,stimuli/EmptyFrame.bmp,stimuli/RedFrame.bmp,2,Anger,Male,3,1,1.0,27.117023468017578,27.117023468017578,0.0,31.110130310058594,31.110130310058594,0.0,30.113569259643555,30.113569259643555,0.0,1.0,1.0,0.0,'2',1.1040663719177246,1.1040663719177246,0.0,3.0
Anger,stimuli/03F_AN_O.bmp,stimuli/03F_AN_O.bmp,stimuli/17F_AN_O.BMP,stimuli/EmptyFrame.bmp,stimuli/RedFrame.bmp,1,Anger,Female,3,1,1.0,31.143375396728516,31.143375396728516,0.0,35.128543853759766,35.128543853759766,0.0,34.15194320678711,34.15194320678711,0.0,1.0,1.0,0.0,'1',0.7801743745803833,0.7801743745803833,0.0,4.0
Anger,stimuli/21M_AN_O.BMP,stimuli/21M_AN_O.BMP,stimuli/33M_AN_O.BMP,stimuli/EmptyFrame.bmp,stimuli/RedFrame.bmp,1,Anger,Male,3,1,1.0,35.15822219848633,35.15822219848633,0.0,39.145530700683594,39.145530700683594,0.0,38.17420196533203,38.17420196533203,0.0,1.0,1.0,0.0,'1',0.758315920829773,0.758315920829773,0.0,5.0
Anger,stimuli/22M_AN_O.BMP,stimuli/32M_AN_O.BMP,stimuli/22M_AN_O.BMP,stimuli/EmptyFrame.bmp,stimuli/RedFrame.bmp,2,Anger,Male,3,1,1.0,39.17277526855469,39.17277526855469,0.0,43.157318115234375,43.157318115234375,0.0,42.16975784301758,42.16975784301758,0.0,1.0,1.0,0.0,'2',0.818101704120636,0.818101704120636,0.0,6.0
Anger,stimuli/23M_AN_O.BMP,stimuli/23M_AN_O.BMP,stimuli/31M_AN_O.BMP,stimuli/EmptyFrame.bmp,stimuli/RedFrame.bmp,1,Anger,Male,3,1,1.0,43.18383026123047,43.18383026123047,0.0,47.181129455566406,47.181129455566406,0.0,46.18098831176758,46.18098831176758,0.0,1.0,1.0,0.0,'1',0.7503423094749451,0.7503423094749451,0.0,7.0
Anger,stimuli/05F_AN_O.bmp,stimuli/05F_AN_O.bmp,stimuli/16F_AN_O.BMP,stimuli/EmptyFrame.bmp,stimuli/RedFrame.bmp,1,Anger,Female,3,1,1.0,47.221656799316406,47.221656799316406,0.0,51.20134735107422,51.20134735107422,0.0,50.2052001953125,50.2052001953125,0.0,1.0,1.0,0.0,'1',0.875129222869873,0.875129222869873,0.0,8.0
Anger,stimuli/06F_AN_O.bmp,stimuli/15F_AN_O.BMP,stimuli/06F_AN_O.bmp,stimuli/EmptyFrame.bmp,stimuli/RedFrame.bmp,2,Anger,Female,3,1,1.0,51.23630905151367,51.23630905151367,0.0,55.22245788574219,55.22245788574219,0.0,54.23091125488281,54.23091125488281,0.0,1.0,1.0,0.0,'2',0.8538796901702881,0.8538796901702881,0.0,9.0
Anger,stimuli/24M_AN_O.BMP,stimuli/24M_AN_O.BMP,stimuli/30M_AN_O.BMP,stimuli/EmptyFrame.bmp,stimuli/RedFrame.bmp,1,Anger,Male,3,1,1.0,55.251914978027344,55.251914978027344,0.0,59.23865509033203,59.23865509033203,0.0,58.24638748168945,58.24638748168945,0.0,1.0,1.0,0.0,'1',0.9964088797569275,0.9964088797569275,0.0,10.0
MatchShape,stimuli/MatchShapes.bmp,stimuli/EmptyFace.bmp,stimuli/EmptyFace.bmp,stimuli/EmptyFrame.bmp,stimuli/EmptyFrame.bmp,Null,None,None,3,1,1.0,59.267311096191406,59.267311096191406,0.0,63.24727249145508,63.24727249145508,0.0,62.24718475341797,62.24718475341797,0.0,0.0,0.0,0.0,,,,,11.0
Shape,stimuli/horizontal.bmp,stimuli/horizontal.bmp,stimuli/circle.bmp,stimuli/EmptyFrame.bmp,stimuli/RedFrame.bmp,1,Shape,None,3,1,1.0,63.28107833862305,63.28107833862305,0.0,67.2646713256836,67.2646713256836,0.0,66.28370666503906,66.28370666503906,0.0,1.0,1.0,0.0,'1',0.827043890953064,0.827043890953064,0.0,12.0
Shape,stimuli/vertical.bmp,stimuli/horizontal.bmp,stimuli/vertical.bmp,stimuli/EmptyFrame.bmp,stimuli/RedFrame.bmp,2,Shape,None,3,1,1.0,67.29157257080078,67.29157257080078,0.0,71.28144073486328,71.28144073486328,0.0,70.30226135253906,70.30226135253906,0.0,1.0,1.0,0.0,'2',0.7379804849624634,0.7379804849624634,0.0,13.0
Shape,stimuli/horizontal.bmp,stimuli/horizontal.bmp,stimuli/vertical.bmp,stimuli/EmptyFrame.bmp,stimuli/RedFrame.bmp,1,Shape,None,3,1,1.0,71.30472564697266,71.30472564697266,0.0,75.3025131225586,75.3025131225586,0.0,74.30296325683594,74.30296325683594,0.0,1.0,1.0,0.0,'1',0.5832762718200684,0.5832762718200684,0.0,14.0
Shape,stimuli/horizontal.bmp,stimuli/circle.bmp,stimuli/horizontal.bmp,stimuli/EmptyFrame.bmp,stimuli/RedFrame.bmp,2,Shape,None,3,1,1.0,75.3267822265625,75.3267822265625,0.0,79.32325744628906,79.32325744628906,0.0,78.33080291748047,78.33080291748047,0.0,1.0,1.0,0.0,'2',0.6672694087028503,0.6672694087028503,0.0,15.0
Shape,stimuli/circle.bmp,stimuli/circle.bmp,stimuli/vertical.bmp,stimuli/EmptyFrame.bmp,stimuli/RedFrame.bmp,1,Shape,None,3,1,1.0,79.34242248535156,79.34242248535156,0.0,83.3411865234375,83.3411865234375,0.0,82.35675048828125,82.35675048828125,0.0,1.0,1.0,0.0,'1',0.5340055227279663,0.5340055227279663,0.0,16.0
Shape,stimuli/circle.bmp,stimuli/circle.bmp,stimuli/horizontal.bmp,stimuli/EmptyFrame.bmp,stimuli/RedFrame.bmp,1,Shape,None,3,1,1.0,83.36343383789062,83.36343383789062,0.0,87.35919189453125,87.35919189453125,0.0,86.3613052368164,86.3613052368164,0.0,1.0,1.0,0.0,'1',0.5662134289741516,0.5662134289741516,0.0,17.0
Shape,stimuli/vertical.bmp,stimuli/circle.bmp,stimuli/vertical.bmp,stimuli/EmptyFrame.bmp,stimuli/RedFrame.bmp,2,Shape,None,3,1,1.0,87.3815689086914,87.3815689086914,0.0,91.36896514892578,91.36896514892578,0.0,90.38939666748047,90.38939666748047,0.0,1.0,1.0,0.0,'2',0.5859400033950806,0.5859400033950806,0.0,18.0
Shape,stimuli/circle.bmp,stimuli/vertical.bmp,stimuli/circle.bmp,stimuli/EmptyFrame.bmp,stimuli/RedFrame.bmp,2,Shape,None,3,1,1.0,91.39060974121094,91.39060974121094,0.0,95.3797607421875,95.3797607421875,0.0,94.39352416992188,94.39352416992188,0.0,1.0,1.0,0.0,'2',0.606745183467865,0.606745183467865,0.0,19.0
Shape,stimuli/vertical.bmp,stimuli/horizontal.bmp,stimuli/vertical.bmp,stimuli/EmptyFrame.bmp,stimuli/RedFrame.bmp,2,Shape,None,3,1,1.0,95.40151977539062,95.40151977539062,0.0,99.38976287841797,99.38976287841797,0.0,98.41175079345703,98.41175079345703,0.0,1.0,1.0,0.0,'2',0.8361868858337402,0.8361868858337402,0.0,20.0
Shape,stimuli/vertical.bmp,stimuli/vertical.bmp,stimuli/circle.bmp,stimuli/EmptyFrame.bmp,stimuli/RedFrame.bmp,1,Shape,None,3,1,1.0,99.41179656982422,99.41179656982422,0.0,103.40505981445312,103.40505981445312,0.0,102.41246795654297,102.41246795654297,0.0,1.0,1.0,0.0,'1',0.6140044927597046,0.6140044927597046,0.0,21.0
MatchFaces,stimuli/MatchFaces.bmp,stimuli/EmptyFace.bmp,stimuli/EmptyFace.bmp,stimuli/EmptyFrame.bmp,stimuli/EmptyFrame.bmp,Null,None,None,3,1,1.0,103.61610412597656,103.61610412597656,0.0,107.40821838378906,107.40821838378906,0.0,106.42621612548828,106.42621612548828,0.0,0.0,0.0,0.0,,,,,22.0
Neutral,stimuli/20M_NE_C.BMP,stimuli/21M_NE_C.BMP,stimuli/20M_NE_C.BMP,stimuli/EmptyFrame.bmp,stimuli/RedFrame.bmp,2,Neutral,Male,3,1,1.0,107.5321044921875,107.5321044921875,0.0,111.4255599975586,111.4255599975586,0.0,110.43592071533203,110.43592071533203,0.0,1.0,1.0,0.0,'2',1.156062364578247,1.156062364578247,0.0,23.0
Neutral,stimuli/01F_NE_C.bmp,stimuli/01F_NE_C.bmp,stimuli/02F_NE_C.bmp,stimuli/EmptyFrame.bmp,stimuli/RedFrame.bmp,1,Neutral,Female,3,1,1.0,111.45640563964844,111.45640563964844,0.0,115.43834686279297,115.43834686279297,0.0,114.45040893554688,114.45040893554688,0.0,1.0,1.0,0.0,'1',0.8218979835510254,0.8218979835510254,0.0,24.0
Neutral,stimuli/22M_NE_C.BMP,stimuli/23M_NE_C.BMP,stimuli/22M_NE_C.BMP,stimuli/EmptyFrame.bmp,stimuli/RedFrame.bmp,2,Neutral,Male,3,1,1.0,115.46867370605469,115.46867370605469,0.0,119.4488754272461,119.4488754272461,0.0,118.47100830078125,118.47100830078125,0.0,1.0,1.0,0.0,'2',0.9809229969978333,0.9809229969978333,0.0,25.0
Neutral,stimuli/24M_NE_C.BMP,stimuli/24M_NE_C.BMP,stimuli/25M_NE_C.BMP,stimuli/EmptyFrame.bmp,stimuli/RedFrame.bmp,1,Neutral,Male,3,1,1.0,119.4786605834961,119.4786605834961,0.0,123.46483612060547,123.46483612060547,0.0,122.4786376953125,122.4786376953125,0.0,1.0,1.0,0.0,'1',0.8913499712944031,0.8913499712944031,0.0,26.0
Neutral,stimuli/03F_NE_C.bmp,stimuli/05F_NE_C.bmp,stimuli/03F_NE_C.bmp,stimuli/EmptyFrame.bmp,stimuli/RedFrame.bmp,2,Neutral,Female,3,1,1.0,123.49341583251953,123.49341583251953,0.0,127.47777557373047,127.47777557373047,0.0,126.48728942871094,126.48728942871094,0.0,1.0,1.0,0.0,'2',0.8646566867828369,0.8646566867828369,0.0,27.0
Neutral,stimuli/26M_NE_C.BMP,stimuli/26M_NE_C.BMP,stimuli/27M_NE_C.BMP,stimuli/EmptyFrame.bmp,stimuli/RedFrame.bmp,1,Neutral,Male,3,1,1.0,127.5067138671875,127.5067138671875,0.0,131.4864044189453,131.4864044189453,0.0,130.4986114501953,130.4986114501953,0.0,1.0,1.0,0.0,'1',1.056419849395752,1.056419849395752,0.0,28.0
Neutral,stimuli/06F_NE_C.bmp,stimuli/07F_NE_C.BMP,stimuli/06F_NE_C.bmp,stimuli/EmptyFrame.bmp,stimuli/RedFrame.bmp,2,Neutral,Female,3,1,1.0,131.5139923095703,131.5139923095703,0.0,135.4972686767578,135.4972686767578,0.0,134.51229858398438,134.51229858398438,0.0,1.0,1.0,0.0,'2',0.908170223236084,0.908170223236084,0.0,29.0
Neutral,stimuli/08F_NE_C.BMP,stimuli/08F_NE_C.BMP,stimuli/09F_NE_C.BMP,stimuli/EmptyFrame.bmp,stimuli/RedFrame.bmp,1,Neutral,Female,3,1,1.0,135.5290069580078,135.5290069580078,0.0,139.51205444335938,139.51205444335938,0.0,138.5325927734375,138.5325927734375,0.0,1.0,1.0,0.0,'1',0.8810551166534424,0.8810551166534424,0.0,30.0
Neutral,stimuli/28M_NE_C.BMP,stimuli/29M_NE_C.BMP,stimuli/28M_NE_C.BMP,stimuli/EmptyFrame.bmp,stimuli/RedFrame.bmp,2,Neutral,Male,3,1,1.0,139.54049682617188,139.54049682617188,0.0,143.53097534179688,143.53097534179688,0.0,142.53543090820312,142.53543090820312,0.0,1.0,1.0,0.0,'2',1.0504592657089233,1.0504592657089233,0.0,31.0
Neutral,stimuli/10F_NE_C.BMP,stimuli/10F_NE_C.BMP,stimuli/06F_NE_C.bmp,stimuli/EmptyFrame.bmp,stimuli/RedFrame.bmp,1,Neutral,Female,3,1,1.0,143.56149291992188,143.56149291992188,0.0,147.55909729003906,147.55909729003906,0.0,146.56808471679688,146.56808471679688,0.0,1.0,1.0,0.0,'1',0.8670246005058289,0.8670246005058289,0.0,32.0
MatchFaces,stimuli/MatchFaces.bmp,stimuli/EmptyFace.bmp,stimuli/EmptyFace.bmp,stimuli/EmptyFrame.bmp,stimuli/EmptyFrame.bmp,Null,None,None,3,1,1.0,147.81478881835938,147.81478881835938,0.0,151.56727600097656,151.56727600097656,0.0,150.5667266845703,150.5667266845703,0.0,0.0,0.0,0.0,,,,,33.0
Fear,stimuli/07F_FE_O.BMP,stimuli/07F_FE_O.BMP,stimuli/14F_FE_O.BMP,stimuli/EmptyFrame.bmp,stimuli/RedFrame.bmp,1,Fear,Female,3,1,1.0,151.7044219970703,151.7044219970703,0.0,155.58522033691406,155.58522033691406,0.0,154.5894775390625,154.5894775390625,0.0,1.0,1.0,0.0,'1',0.8219695091247559,0.8219695091247559,0.0,34.0
Fear,stimuli/25M_FE_O.BMP,stimuli/29M_FE_O.BMP,stimuli/25M_FE_O.BMP,stimuli/EmptyFrame.bmp,stimuli/RedFrame.bmp,2,Fear,Male,3,1,1.0,155.6103515625,155.6103515625,0.0,159.6046905517578,159.6046905517578,0.0,158.63726806640625,158.63726806640625,0.0,1.0,1.0,0.0,'2',0.7361096739768982,0.7361096739768982,0.0,35.0
Fear,stimuli/26M_FE_O.BMP,stimuli/26M_FE_O.BMP,stimuli/28M_FE_O.BMP,stimuli/EmptyFrame.bmp,stimuli/RedFrame.bmp,1,Fear,Male,3,1,1.0,159.6396942138672,159.6396942138672,0.0,163.61752319335938,163.61752319335938,0.0,162.63363647460938,162.63363647460938,0.0,1.0,1.0,0.0,'1',0.7557464241981506,0.7557464241981506,0.0,36.0
Fear,stimuli/08F_FE_O.BMP,stimuli/13F_FE_O.BMP,stimuli/08F_FE_O.BMP,stimuli/EmptyFrame.bmp,stimuli/RedFrame.bmp,2,Fear,Female,3,1,1.0,163.64453125,163.64453125,0.0,167.63206481933594,167.63206481933594,0.0,166.63909912109375,166.63909912109375,0.0,1.0,1.0,0.0,'2',0.8285496830940247,0.8285496830940247,0.0,37.0
Fear,stimuli/09F_FE_O.BMP,stimuli/09F_FE_O.BMP,stimuli/12F_FE_O.BMP,stimuli/EmptyFrame.bmp,stimuli/RedFrame.bmp,1,Fear,Female,3,1,1.0,167.66099548339844,167.66099548339844,0.0,171.64625549316406,171.64625549316406,0.0,170.66563415527344,170.66563415527344,0.0,1.0,1.0,0.0,'1',0.884672224521637,0.884672224521637,0.0,38.0
Fear,stimuli/27M_FE_O.BMP,stimuli/26M_FE_O.BMP,stimuli/27M_FE_O.BMP,stimuli/EmptyFrame.bmp,stimuli/RedFrame.bmp,2,Fear,Male,3,1,1.0,171.67047119140625,171.67047119140625,0.0,175.66908264160156,175.66908264160156,0.0,174.6754150390625,174.6754150390625,0.0,1.0,1.0,0.0,'2',0.7876316905021667,0.7876316905021667,0.0,39.0
Fear,stimuli/28M_FE_O.BMP,stimuli/28M_FE_O.BMP,stimuli/25M_FE_O.BMP,stimuli/EmptyFrame.bmp,stimuli/RedFrame.bmp,1,Fear,Male,3,1,1.0,175.69430541992188,175.69430541992188,0.0,179.6822052001953,179.6822052001953,0.0,178.6908416748047,178.6908416748047,0.0,1.0,1.0,0.0,'1',0.7349597811698914,0.7349597811698914,0.0,40.0
Fear,stimuli/10F_FE_O.BMP,stimuli/11F_FE_O.BMP,stimuli/10F_FE_O.BMP,stimuli/EmptyFrame.bmp,stimuli/RedFrame.bmp,2,Fear,Female,3,1,1.0,179.70851135253906,179.70851135253906,0.0,183.69473266601562,183.69473266601562,0.0,182.70628356933594,182.70628356933594,0.0,1.0,1.0,0.0,'2',1.053503394126892,1.053503394126892,0.0,41.0
Fear,stimuli/29M_FE_O.BMP,stimuli/29M_FE_O.BMP,stimuli/24M_FE_O.BMP,stimuli/EmptyFrame.bmp,stimuli/RedFrame.bmp,1,Fear,Male,3,1,1.0,183.72154235839844,183.72154235839844,0.0,187.7161407470703,187.7161407470703,0.0,186.72665405273438,186.72665405273438,0.0,1.0,1.0,0.0,'1',0.7973018884658813,0.7973018884658813,0.0,42.0
Fear,stimuli/11F_FE_O.BMP,stimuli/10F_FE_O.BMP,stimuli/11F_FE_O.BMP,stimuli/EmptyFrame.bmp,stimuli/RedFrame.bmp,2,Fear,Female,3,1,1.0,187.7400360107422,187.7400360107422,0.0,191.7333221435547,191.7333221435547,0.0,190.7469024658203,190.7469024658203,0.0,1.0,1.0,0.0,'2',0.924727201461792,0.924727201461792,0.0,43.0
MatchFaces,stimuli/MatchFaces.bmp,stimuli/EmptyFace.bmp,stimuli/EmptyFace.bmp,stimuli/EmptyFrame.bmp,stimuli/EmptyFrame.bmp,Null,None,None,3,1,1.0,191.8913116455078,191.8913116455078,0.0,195.74105834960938,195.74105834960938,0.0,194.7480010986328,194.7480010986328,0.0,0.0,0.0,0.0,,,,,44.0
Happy,stimuli/19F_HA_O.BMP,stimuli/19F_HA_O.BMP,stimuli/18F_HA_O.BMP,stimuli/EmptyFrame.bmp,stimuli/RedFrame.bmp,1,Happy,Female,3,1,1.0,195.8227081298828,195.8227081298828,0.0,199.75827026367188,199.75827026367188,0.0,198.76638793945312,198.76638793945312,0.0,1.0,1.0,0.0,'1',0.7499130964279175,0.7499130964279175,0.0,45.0
Happy,stimuli/17F_HA_O.BMP,stimuli/16F_HA_O.BMP,stimuli/17F_HA_O.BMP,stimuli/EmptyFrame.bmp,stimuli/RedFrame.bmp,2,Happy,Female,3,1,1.0,199.78384399414062,199.78384399414062,0.0,203.77603149414062,203.77603149414062,0.0,202.78785705566406,202.78785705566406,0.0,1.0,1.0,0.0,'2',0.9280446171760559,0.9280446171760559,0.0,46.0
Happy,stimuli/43M_HA_O.BMP,stimuli/42M_HA_O.BMP,stimuli/43M_HA_O.BMP,stimuli/EmptyFrame.bmp,stimuli/RedFrame.bmp,2,Happy,Male,3,1,1.0,203.80148315429688,203.80148315429688,0.0,207.797607421875,207.797607421875,0.0,206.81639099121094,206.81639099121094,0.0,1.0,1.0,0.0,'2',0.988247811794281,0.988247811794281,0.0,47.0
Happy,stimuli/41M_HA_O.BMP,stimuli/41M_HA_O.BMP,stimuli/40M_HA_O.BMP,stimuli/EmptyFrame.bmp,stimuli/RedFrame.bmp,1,Happy,Male,3,1,1.0,207.82656860351562,207.82656860351562,0.0,211.8126983642578,211.8126983642578,0.0,210.82583618164062,210.82583618164062,0.0,1.0,1.0,0.0,'1',0.8806921243667603,0.8806921243667603,0.0,48.0
Happy,stimuli/15F_HA_O.BMP,stimuli/15F_HA_O.BMP,stimuli/14F_HA_O.BMP,stimuli/EmptyFrame.bmp,stimuli/RedFrame.bmp,1,Happy,Female,3,1,1.0,211.83840942382812,211.83840942382812,0.0,215.8252410888672,215.8252410888672,0.0,214.84152221679688,214.84152221679688,0.0,1.0,1.0,0.0,'1',1.0180782079696655,1.0180782079696655,0.0,49.0
Happy,stimuli/13F_HA_O.BMP,stimuli/13F_HA_O.BMP,stimuli/12F_HA_O.BMP,stimuli/EmptyFrame.bmp,stimuli/RedFrame.bmp,1,Happy,Female,3,1,1.0,215.85597229003906,215.85597229003906,0.0,219.843505859375,219.843505859375,0.0,218.85984802246094,218.85984802246094,0.0,1.0,1.0,0.0,'1',0.9765738248825073,0.9765738248825073,0.0,50.0
Happy,stimuli/39M_HA_O.BMP,stimuli/38M_HA_O.BMP,stimuli/39M_HA_O.BMP,stimuli/EmptyFrame.bmp,stimuli/RedFrame.bmp,2,Happy,Male,3,1,1.0,219.8715362548828,219.8715362548828,0.0,223.862548828125,223.862548828125,0.0,222.8736114501953,222.8736114501953,0.0,1.0,1.0,0.0,'2',0.9242315888404846,0.9242315888404846,0.0,51.0
Happy,stimuli/37M_HA_O.BMP,stimuli/37M_HA_O.BMP,stimuli/36M_HA_O.BMP,stimuli/EmptyFrame.bmp,stimuli/RedFrame.bmp,1,Happy,Male,3,1,1.0,223.8923797607422,223.8923797607422,0.0,227.89474487304688,227.89474487304688,0.0,226.90545654296875,226.90545654296875,0.0,1.0,1.0,0.0,'1',0.8347690105438232,0.8347690105438232,0.0,52.0
Happy,stimuli/35M_HA_O.BMP,stimuli/34M_HA_O.BMP,stimuli/35M_HA_O.BMP,stimuli/EmptyFrame.bmp,stimuli/RedFrame.bmp,2,Happy,Male,3,1,1.0,227.93093872070312,227.93093872070312,0.0,231.90684509277344,231.90684509277344,0.0,230.91993713378906,230.91993713378906,0.0,1.0,1.0,0.0,'2',0.9865682721138,0.9865682721138,0.0,53.0
Happy,stimuli/11F_HA_O.BMP,stimuli/10F_HA_O.BMP,stimuli/11F_HA_O.BMP,stimuli/EmptyFrame.bmp,stimuli/RedFrame.bmp,2,Happy,Female,3,1,1.0,231.93167114257812,231.93167114257812,0.0,235.91867065429688,235.91867065429688,0.0,234.93727111816406,234.93727111816406,0.0,1.0,1.0,0.0,'2',0.8871517777442932,0.8871517777442932,0.0,54.0
Match Shape,stimuli/MatchShapes.bmp,stimuli/EmptyFace.bmp,stimuli/EmptyFace.bmp,stimuli/EmptyFrame.bmp,stimuli/EmptyFrame.bmp,Null,None,None,3,1,1.0,235.95184326171875,235.95184326171875,0.0,239.919921875,239.919921875,0.0,238.92665100097656,238.92665100097656,0.0,0.0,0.0,0.0,,,,,55.0
Shape,stimuli/circle.bmp,stimuli/vertical.bmp,stimuli/circle.bmp,stimuli/EmptyFrame.bmp,stimuli/RedFrame.bmp,2,Shape,None,3,1,1.0,239.96701049804688,239.96701049804688,0.0,243.93775939941406,243.93775939941406,0.0,242.9568328857422,242.9568328857422,0.0,1.0,1.0,0.0,'2',0.608434796333313,0.608434796333313,0.0,56.0
Shape,stimuli/horizontal.bmp,stimuli/circle.bmp,stimuli/horizontal.bmp,stimuli/EmptyFrame.bmp,stimuli/RedFrame.bmp,2,Shape,None,3,1,1.0,243.9580841064453,243.9580841064453,0.0,247.9485321044922,247.9485321044922,0.0,246.96005249023438,246.96005249023438,0.0,1.0,1.0,0.0,'2',0.7015780806541443,0.7015780806541443,0.0,57.0
Shape,stimuli/vertical.bmp,stimuli/vertical.bmp,stimuli/horizontal.bmp,stimuli/EmptyFrame.bmp,stimuli/RedFrame.bmp,1,Shape,None,3,1,1.0,247.97325134277344,247.97325134277344,0.0,251.97032165527344,251.97032165527344,0.0,250.97647094726562,250.97647094726562,0.0,1.0,1.0,0.0,'1',0.6845691800117493,0.6845691800117493,0.0,58.0
Shape,stimuli/horizontal.bmp,stimuli/circle.bmp,stimuli/horizontal.bmp,stimuli/EmptyFrame.bmp,stimuli/RedFrame.bmp,2,Shape,None,3,1,1.0,251.99014282226562,251.99014282226562,0.0,255.98509216308594,255.98509216308594,0.0,254.99636840820312,254.99636840820312,0.0,1.0,1.0,0.0,'2',0.7110419273376465,0.7110419273376465,0.0,59.0
Shape,stimuli/horizontal.bmp,stimuli/horizontal.bmp,stimuli/vertical.bmp,stimuli/EmptyFrame.bmp,stimuli/RedFrame.bmp,1,Shape,None,3,1,1.0,256.0071716308594,256.0071716308594,0.0,260.00213623046875,260.00213623046875,0.0,259.00933837890625,259.00933837890625,0.0,1.0,1.0,0.0,'1',0.6468709707260132,0.6468709707260132,0.0,60.0
Shape,stimuli/vertical.bmp,stimuli/vertical.bmp,stimuli/circle.bmp,stimuli/EmptyFrame.bmp,stimuli/RedFrame.bmp,1,Shape,None,3,1,1.0,260.0239562988281,260.0239562988281,0.0,264.02178955078125,264.02178955078125,0.0,263.0296325683594,263.0296325683594,0.0,1.0,1.0,0.0,'1',0.592121422290802,0.592121422290802,0.0,61.0
Shape,stimuli/circle.bmp,stimuli/horizontal.bmp,stimuli/circle.bmp,stimuli/EmptyFrame.bmp,stimuli/RedFrame.bmp,2,Shape,None,3,1,1.0,264.0481872558594,264.0481872558594,0.0,268.0341796875,268.0341796875,0.0,267.0487976074219,267.0487976074219,0.0,1.0,1.0,0.0,'2',0.6205912828445435,0.6205912828445435,0.0,62.0
Shape,stimuli/circle.bmp,stimuli/vertical.bmp,stimuli/circle.bmp,stimuli/EmptyFrame.bmp,stimuli/RedFrame.bmp,2,Shape,None,3,1,1.0,268.0591735839844,268.0591735839844,0.0,272.05908203125,272.05908203125,0.0,271.06048583984375,271.06048583984375,0.0,1.0,1.0,0.0,'2',0.518848717212677,0.518848717212677,0.0,63.0
Shape,stimuli/vertical.bmp,stimuli/vertical.bmp,stimuli/horizontal.bmp,stimuli/EmptyFrame.bmp,stimuli/RedFrame.bmp,1,Shape,None,3,1,1.0,272.08514404296875,272.08514404296875,0.0,276.0750427246094,276.0750427246094,0.0,275.087646484375,275.087646484375,0.0,1.0,1.0,0.0,'1',0.8681126832962036,0.8681126832962036,0.0,64.0
Shape,stimuli/horizontal.bmp,stimuli/horizontal.bmp,stimuli/circle.bmp,stimuli/EmptyFrame.bmp,stimuli/RedFrame.bmp,1,Shape,None,3,1,1.0,276.098876953125,276.098876953125,0.0,280.0864562988281,280.0864562988281,0.0,279.10247802734375,279.10247802734375,0.0,1.0,1.0,0.0,'1',0.6545192003250122,0.6545192003250122,0.0,65.0
MatchFaces,stimuli/MatchFaces.bmp,stimuli/EmptyFace.bmp,stimuli/EmptyFace.bmp,stimuli/EmptyFrame.bmp,stimuli/EmptyFrame.bmp,Null,None,None,3,1,1.0,280.3982238769531,280.3982238769531,0.0,284.09112548828125,284.09112548828125,0.0,283.09771728515625,283.09771728515625,0.0,0.0,0.0,0.0,,,,,66.0
Anger,stimuli/42M_AN_O.BMP,stimuli/42M_AN_O.BMP,stimuli/43M_AN_O.BMP,stimuli/EmptyFrame.bmp,stimuli/RedFrame.bmp,1,Anger,Male,3,1,1.0,284.17620849609375,284.17620849609375,0.0,288.1027526855469,288.1027526855469,0.0,287.11248779296875,287.11248779296875,0.0,1.0,1.0,0.0,'1',0.6854146718978882,0.6854146718978882,0.0,67.0
Anger,stimuli/07F_AN_O.BMP,stimuli/07F_AN_O.BMP,stimuli/14F_AN_O.BMP,stimuli/EmptyFrame.bmp,stimuli/RedFrame.bmp,1,Anger,Female,3,1,1.0,288.1296081542969,288.1296081542969,0.0,292.1156005859375,292.1156005859375,0.0,291.1393737792969,291.1393737792969,0.0,1.0,1.0,0.0,'1',0.6845170855522156,0.6845170855522156,0.0,68.0
Anger,stimuli/40M_AN_O.BMP,stimuli/41M_AN_O.BMP,stimuli/40M_AN_O.BMP,stimuli/EmptyFrame.bmp,stimuli/RedFrame.bmp,2,Anger,Male,3,1,1.0,292.1502380371094,292.1502380371094,0.0,296.1241760253906,296.1241760253906,0.0,295.1511535644531,295.1511535644531,0.0,1.0,1.0,0.0,'2',0.8086156249046326,0.8086156249046326,0.0,69.0
Anger,stimuli/38M_AN_O.BMP,stimuli/39M_AN_O.BMP,stimuli/38M_AN_O.BMP,stimuli/EmptyFrame.bmp,stimuli/RedFrame.bmp,2,Anger,Male,3,1,1.0,296.15618896484375,296.15618896484375,0.0,300.1396484375,300.1396484375,0.0,299.1546630859375,299.1546630859375,0.0,1.0,1.0,0.0,'2',1.135270595550537,1.135270595550537,0.0,70.0
Anger,stimuli/08F_AN_O.BMP,stimuli/08F_AN_O.BMP,stimuli/13F_AN_O.BMP,stimuli/EmptyFrame.bmp,stimuli/RedFrame.bmp,1,Anger,Female,3,1,1.0,300.16754150390625,300.16754150390625,0.0,304.15313720703125,304.15313720703125,0.0,303.1687927246094,303.1687927246094,0.0,1.0,1.0,0.0,'1',0.8750841021537781,0.8750841021537781,0.0,71.0
Anger,stimuli/36M_AN_O.BMP,stimuli/37M_AN_O.BMP,stimuli/36M_AN_O.BMP,stimuli/EmptyFrame.bmp,stimuli/RedFrame.bmp,2,Anger,Male,3,1,1.0,304.1895751953125,304.1895751953125,0.0,308.1766357421875,308.1766357421875,0.0,307.1930236816406,307.1930236816406,0.0,1.0,1.0,0.0,'2',0.6829161047935486,0.6829161047935486,0.0,72.0
Anger,stimuli/09F_AN_O.BMP,stimuli/12F_AN_O.BMP,stimuli/09F_AN_O.BMP,stimuli/EmptyFrame.bmp,stimuli/RedFrame.bmp,2,Anger,Female,3,1,1.0,308.2186584472656,308.2186584472656,0.0,312.1957092285156,312.1957092285156,0.0,311.2058410644531,311.2058410644531,0.0,1.0,1.0,0.0,'2',0.8752840757369995,0.8752840757369995,0.0,73.0
Anger,stimuli/34M_AN_O.BMP,stimuli/35M_AN_O.BMP,stimuli/34M_AN_O.BMP,stimuli/EmptyFrame.bmp,stimuli/RedFrame.bmp,2,Anger,Male,3,1,1.0,312.2209777832031,312.2209777832031,0.0,316.2261047363281,316.2261047363281,0.0,315.2272644042969,315.2272644042969,0.0,1.0,1.0,0.0,'2',0.9527022242546082,0.9527022242546082,0.0,74.0
Anger,stimuli/10F_AN_O.BMP,stimuli/10F_AN_O.BMP,stimuli/11F_AN_O.BMP,stimuli/EmptyFrame.bmp,stimuli/RedFrame.bmp,1,Anger,Female,3,1,1.0,316.2567443847656,316.2567443847656,0.0,320.2463684082031,320.2463684082031,0.0,319.251953125,319.251953125,0.0,1.0,1.0,0.0,'1',0.9167006015777588,0.9167006015777588,0.0,75.0
Anger,stimuli/12F_AN_O.BMP,stimuli/12F_AN_O.BMP,stimuli/13F_AN_O.BMP,stimuli/EmptyFrame.bmp,stimuli/RedFrame.bmp,1,Anger,Female,3,1,1.0,320.2667541503906,320.2667541503906,0.0,324.26739501953125,324.26739501953125,0.0,323.2782287597656,323.2782287597656,0.0,1.0,1.0,0.0,'1',0.8762564063072205,0.8762564063072205,0.0,76.0
MatchFaces,stimuli/MatchFaces.bmp,stimuli/EmptyFace.bmp,stimuli/EmptyFace.bmp,stimuli/EmptyFrame.bmp,stimuli/EmptyFrame.bmp,Null,None,None,3,1,1.0,324.5657043457031,324.5657043457031,0.0,328.2759704589844,328.2759704589844,0.0,327.275634765625,327.275634765625,0.0,0.0,0.0,0.0,,,,,77.0
Happy,stimuli/20M_HA_O.BMP,stimuli/21M_HA_O.BMP,stimuli/20M_HA_O.BMP,stimuli/EmptyFrame.bmp,stimuli/RedFrame.bmp,2,Happy,Male,3,1,1.0,328.35308837890625,328.35308837890625,0.0,332.29736328125,332.29736328125,0.0,331.3116149902344,331.3116149902344,0.0,1.0,1.0,0.0,'2',0.675544023513794,0.675544023513794,0.0,78.0
Happy,stimuli/01F_HA_O.bmp,stimuli/01F_HA_O.bmp,stimuli/02F_HA_O.bmp,stimuli/EmptyFrame.bmp,stimuli/RedFrame.bmp,1,Happy,Female,3,1,1.0,332.3271789550781,332.3271789550781,0.0,336.3169860839844,336.3169860839844,0.0,335.3262023925781,335.3262023925781,0.0,1.0,1.0,0.0,'1',0.724847674369812,0.724847674369812,0.0,79.0
Happy,stimuli/22M_HA_O.BMP,stimuli/23M_HA_O.BMP,stimuli/22M_HA_O.BMP,stimuli/EmptyFrame.bmp,stimuli/RedFrame.bmp,2,Happy,Male,3,1,1.0,336.34619140625,336.34619140625,0.0,340.3358154296875,340.3358154296875,0.0,339.3656921386719,339.3656921386719,0.0,1.0,1.0,0.0,'2',0.7143533825874329,0.7143533825874329,0.0,80.0
Happy,stimuli/24M_HA_O.BMP,stimuli/24M_HA_O.BMP,stimuli/25M_HA_O.BMP,stimuli/EmptyFrame.bmp,stimuli/RedFrame.bmp,1,Happy,Male,3,1,1.0,340.3629150390625,340.3629150390625,0.0,344.35858154296875,344.35858154296875,0.0,343.3662414550781,343.3662414550781,0.0,1.0,1.0,0.0,'1',0.8625730872154236,0.8625730872154236,0.0,81.0
Happy,stimuli/03F_HA_O.bmp,stimuli/05F_HA_O.bmp,stimuli/03F_HA_O.bmp,stimuli/EmptyFrame.bmp,stimuli/RedFrame.bmp,2,Happy,Female,3,1,1.0,344.38848876953125,344.38848876953125,0.0,348.3692626953125,348.3692626953125,0.0,347.3913879394531,347.3913879394531,0.0,1.0,1.0,0.0,'2',0.979252278804779,0.979252278804779,0.0,82.0
Happy,stimuli/26M_HA_O.BMP,stimuli/26M_HA_O.BMP,stimuli/27M_HA_O.BMP,stimuli/EmptyFrame.bmp,stimuli/RedFrame.bmp,1,Happy,Male,3,1,1.0,348.401611328125,348.401611328125,0.0,352.39483642578125,352.39483642578125,0.0,351.40625,351.40625,0.0,1.0,1.0,0.0,'1',0.8930981159210205,0.8930981159210205,0.0,83.0
Happy,stimuli/06F_HA_O.bmp,stimuli/07F_HA_O.BMP,stimuli/06F_HA_O.bmp,stimuli/EmptyFrame.bmp,stimuli/RedFrame.bmp,2,Happy,Female,3,1,1.0,352.4332580566406,352.4332580566406,0.0,356.4126281738281,356.4126281738281,0.0,355.421142578125,355.421142578125,0.0,1.0,1.0,0.0,'2',0.8802999258041382,0.8802999258041382,0.0,84.0
Happy,stimuli/08F_HA_O.BMP,stimuli/08F_HA_O.BMP,stimuli/09F_HA_O.BMP,stimuli/EmptyFrame.bmp,stimuli/RedFrame.bmp,1,Happy,Female,3,1,1.0,356.44244384765625,356.44244384765625,0.0,360.4313659667969,360.4313659667969,0.0,359.4344482421875,359.4344482421875,0.0,1.0,1.0,0.0,'1',0.9524443745613098,0.9524443745613098,0.0,85.0
Happy,stimuli/28M_HA_O.BMP,stimuli/29M_HA_O.BMP,stimuli/28M_HA_O.BMP,stimuli/EmptyFrame.bmp,stimuli/RedFrame.bmp,2,Happy,Male,3,1,1.0,360.46063232421875,360.46063232421875,0.0,364.448486328125,364.448486328125,0.0,363.4600830078125,363.4600830078125,0.0,1.0,1.0,0.0,'2',0.897452175617218,0.897452175617218,0.0,86.0
Happy,stimuli/10F_HA_O.BMP,stimuli/10F_HA_O.BMP,stimuli/06F_HA_O.bmp,stimuli/EmptyFrame.bmp,stimuli/RedFrame.bmp,1,Happy,Female,3,1,1.0,364.4719543457031,364.4719543457031,0.0,368.46575927734375,368.46575927734375,0.0,367.4747314453125,367.4747314453125,0.0,1.0,1.0,0.0,'1',0.7696313261985779,0.7696313261985779,0.0,87.0
MatchFaces,stimuli/MatchFaces.bmp,stimuli/EmptyFace.bmp,stimuli/EmptyFace.bmp,stimuli/EmptyFrame.bmp,stimuli/EmptyFrame.bmp,Null,None,None,3,1,1.0,368.6591796875,368.6591796875,0.0,372.47271728515625,372.47271728515625,0.0,371.48193359375,371.48193359375,0.0,0.0,0.0,0.0,,,,,88.0
Neutral,stimuli/07F_NE_C.BMP,stimuli/07F_NE_C.BMP,stimuli/14F_NE_C.BMP,stimuli/EmptyFrame.bmp,stimuli/RedFrame.bmp,1,Neutral,Female,3,1,1.0,372.5540466308594,372.5540466308594,0.0,376.4916687011719,376.4916687011719,0.0,375.49871826171875,375.49871826171875,0.0,1.0,1.0,0.0,'1',0.8869072198867798,0.8869072198867798,0.0,89.0
Neutral,stimuli/25M_NE_C.BMP,stimuli/29M_NE_C.BMP,stimuli/25M_NE_C.BMP,stimuli/EmptyFrame.bmp,stimuli/RedFrame.bmp,2,Neutral,Male,3,1,1.0,376.5180969238281,376.5180969238281,0.0,380.50958251953125,380.50958251953125,0.0,379.52655029296875,379.52655029296875,0.0,1.0,1.0,0.0,'2',0.7906618714332581,0.7906618714332581,0.0,90.0
Neutral,stimuli/26M_NE_C.BMP,stimuli/26M_NE_C.BMP,stimuli/28M_NE_C.BMP,stimuli/EmptyFrame.bmp,stimuli/RedFrame.bmp,1,Neutral,Male,3,1,1.0,380.5348205566406,380.5348205566406,0.0,384.5183410644531,384.5183410644531,0.0,383.5314636230469,383.5314636230469,0.0,1.0,1.0,0.0,'1',0.7748438715934753,0.7748438715934753,0.0,91.0
Neutral,stimuli/08F_NE_C.BMP,stimuli/13F_NE_C.BMP,stimuli/08F_NE_C.BMP,stimuli/EmptyFrame.bmp,stimuli/RedFrame.bmp,2,Neutral,Female,3,1,1.0,384.54388427734375,384.54388427734375,0.0,388.5394287109375,388.5394287109375,0.0,387.5526123046875,387.5526123046875,0.0,1.0,1.0,0.0,'2',0.7264912724494934,0.7264912724494934,0.0,92.0
Neutral,stimuli/09F_NE_C.BMP,stimuli/09F_NE_C.BMP,stimuli/12F_NE_C.BMP,stimuli/EmptyFrame.bmp,stimuli/RedFrame.bmp,1,Neutral,Female,3,1,1.0,388.5655822753906,388.5655822753906,0.0,392.5603332519531,392.5603332519531,0.0,391.5743713378906,391.5743713378906,0.0,1.0,1.0,0.0,'1',0.778730571269989,0.778730571269989,0.0,93.0
Neutral,stimuli/27M_NE_C.BMP,stimuli/26M_NE_C.BMP,stimuli/27M_NE_C.BMP,stimuli/EmptyFrame.bmp,stimuli/RedFrame.bmp,2,Neutral,Male,3,1,1.0,392.58099365234375,392.58099365234375,0.0,396.5815734863281,396.5815734863281,0.0,395.5900573730469,395.5900573730469,0.0,1.0,1.0,0.0,'2',0.8606705069541931,0.8606705069541931,0.0,94.0
Neutral,stimuli/28M_NE_C.BMP,stimuli/28M_NE_C.BMP,stimuli/25M_NE_C.BMP,stimuli/EmptyFrame.bmp,stimuli/RedFrame.bmp,1,Neutral,Male,3,1,1.0,396.6073913574219,396.6073913574219,0.0,400.596435546875,400.596435546875,0.0,399.61077880859375,399.61077880859375,0.0,1.0,1.0,0.0,'1',0.905570924282074,0.905570924282074,0.0,95.0
Neutral,stimuli/10F_NE_C.BMP,stimuli/11F_NE_C.BMP,stimuli/10F_NE_C.BMP,stimuli/EmptyFrame.bmp,stimuli/RedFrame.bmp,2,Neutral,Female,3,1,1.0,400.6235656738281,400.6235656738281,0.0,404.6094665527344,404.6094665527344,0.0,403.63262939453125,403.63262939453125,0.0,1.0,1.0,0.0,'2',0.6333897113800049,0.6333897113800049,0.0,96.0
Neutral,stimuli/29M_NE_C.BMP,stimuli/29M_NE_C.BMP,stimuli/24M_NE_C.BMP,stimuli/EmptyFrame.bmp,stimuli/RedFrame.bmp,1,Neutral,Male,3,1,1.0,404.6314697265625,404.6314697265625,0.0,408.63311767578125,408.63311767578125,0.0,407.63116455078125,407.63116455078125,0.0,1.0,1.0,0.0,'1',0.9009221792221069,0.9009221792221069,0.0,97.0
Neutral,stimuli/11F_NE_C.BMP,stimuli/10F_NE_C.BMP,stimuli/11F_NE_C.BMP,stimuli/EmptyFrame.bmp,stimuli/RedFrame.bmp,2,Neutral,Female,3,1,1.0,408.65460205078125,408.65460205078125,0.0,412.64984130859375,412.64984130859375,0.0,411.6656188964844,411.6656188964844,0.0,1.0,1.0,0.0,'2',0.7847341299057007,0.7847341299057007,0.0,98.0
MatchFaces,stimuli/MatchFaces.bmp,stimuli/EmptyFace.bmp,stimuli/EmptyFace.bmp,stimuli/EmptyFrame.bmp,stimuli/EmptyFrame.bmp,Null,None,None,3,1,1.0,412.8616027832031,412.8616027832031,0.0,416.6509094238281,416.6509094238281,0.0,415.65606689453125,415.65606689453125,0.0,0.0,0.0,0.0,,,,,99.0
Fear,stimuli/23M_FE_O.BMP,stimuli/23M_FE_O.BMP,stimuli/24M_FE_O.BMP,stimuli/EmptyFrame.bmp,stimuli/RedFrame.bmp,1,Fear,Male,3,1,1.0,416.7208557128906,416.7208557128906,0.0,420.66864013671875,420.66864013671875,0.0,419.6744079589844,419.6744079589844,0.0,1.0,1.0,0.0,'1',0.6093189120292664,0.6093189120292664,0.0,100.0
Fear,stimuli/19F_FE_O.BMP,stimuli/18F_FE_O.BMP,stimuli/19F_FE_O.BMP,stimuli/EmptyFrame.bmp,stimuli/RedFrame.bmp,2,Fear,Female,3,1,1.0,420.6958312988281,420.6958312988281,0.0,424.6902160644531,424.6902160644531,0.0,423.6924743652344,423.6924743652344,0.0,1.0,1.0,0.0,'2',0.6459389925003052,0.6459389925003052,0.0,101.0
Fear,stimuli/17F_FE_O.BMP,stimuli/17F_FE_O.BMP,stimuli/16F_FE_O.BMP,stimuli/EmptyFrame.bmp,stimuli/RedFrame.bmp,1,Fear,Female,3,1,1.0,424.7254638671875,424.7254638671875,0.0,428.7092590332031,428.7092590332031,0.0,427.7169189453125,427.7169189453125,0.0,1.0,1.0,0.0,'1',0.8023430705070496,0.8023430705070496,0.0,102.0
Fear,stimuli/15F_FE_O.BMP,stimuli/18F_FE_O.BMP,stimuli/15F_FE_O.BMP,stimuli/EmptyFrame.bmp,stimuli/RedFrame.bmp,2,Fear,Female,3,1,1.0,428.736572265625,428.736572265625,0.0,432.72698974609375,432.72698974609375,0.0,431.7425231933594,431.7425231933594,0.0,1.0,1.0,0.0,'2',0.638351321220398,0.638351321220398,0.0,103.0
Fear,stimuli/21M_FE_O.BMP,stimuli/21M_FE_O.BMP,stimuli/22M_FE_O.BMP,stimuli/EmptyFrame.bmp,stimuli/RedFrame.bmp,1,Fear,Male,3,1,1.0,432.7533874511719,432.7533874511719,0.0,436.7483215332031,436.7483215332031,0.0,435.7567443847656,435.7567443847656,0.0,1.0,1.0,0.0,'1',0.8240944743156433,0.8240944743156433,0.0,104.0
Fear,stimuli/29M_FE_O.BMP,stimuli/30M_FE_O.BMP,stimuli/29M_FE_O.BMP,stimuli/EmptyFrame.bmp,stimuli/RedFrame.bmp,2,Fear,Male,3,1,1.0,436.7717590332031,436.7717590332031,0.0,440.75799560546875,440.75799560546875,0.0,439.7787170410156,439.7787170410156,0.0,1.0,1.0,0.0,'2',1.0336180925369263,1.0336180925369263,0.0,105.0
Fear,stimuli/31M_FE_O.BMP,stimuli/31M_FE_O.BMP,stimuli/38M_FE_O.BMP,stimuli/EmptyFrame.bmp,stimuli/RedFrame.bmp,1,Fear,Male,3,1,1.0,440.7900085449219,440.7900085449219,0.0,444.77764892578125,444.77764892578125,0.0,443.7930908203125,443.7930908203125,0.0,1.0,1.0,0.0,'1',0.8709707856178284,0.8709707856178284,0.0,106.0
Fear,stimuli/09F_FE_O.BMP,stimuli/07F_FE_O.BMP,stimuli/09F_FE_O.BMP,stimuli/EmptyFrame.bmp,stimuli/RedFrame.bmp,2,Fear,Female,3,1,1.0,444.8033142089844,444.8033142089844,0.0,448.803955078125,448.803955078125,0.0,447.81268310546875,447.81268310546875,0.0,1.0,1.0,0.0,'2',0.7893791794776917,0.7893791794776917,0.0,107.0
Fear,stimuli/11F_FE_O.BMP,stimuli/12F_FE_O.BMP,stimuli/11F_FE_O.BMP,stimuli/EmptyFrame.bmp,stimuli/RedFrame.bmp,2,Fear,Female,3,1,1.0,448.8249206542969,448.8249206542969,0.0,452.8232727050781,452.8232727050781,0.0,451.83074951171875,451.83074951171875,0.0,1.0,1.0,0.0,'2',1.2203221321105957,1.2203221321105957,0.0,108.0
Fear,stimuli/34M_FE_O.BMP,stimuli/34M_FE_O.BMP,stimuli/33M_FE_O.BMP,stimuli/EmptyFrame.bmp,stimuli/RedFrame.bmp,1,Fear,Male,3,1,1.0,452.8524475097656,452.8524475097656,0.0,456.84619140625,456.84619140625,0.0,455.8486633300781,455.8486633300781,0.0,1.0,1.0,0.0,'1',0.8623487949371338,0.8623487949371338,0.0,109.0

extraInfo
participant,sub015
session,001
date,2025_Jun_24_0910
expName,HaririTask_Ver1
psychopyVersion,3.0.1
frameRate,None
