TrialType,Top,Left,Right,EmptyFrame,SelectedFrame,Correct,Emotion,Gender,TrialLength,FixationLength,n,GCFaceStartTime_mean,GCFaceStartTime_raw,GCFaceStartTime_std,GCPostFaceFixationEndTime_mean,GCPostFaceFixationEndTime_raw,GCPostFaceFixationEndTime_std,GCPostFaceFixationStartTime_mean,GCPostFaceFixationStartTime_raw,GCPostFaceFixationStartTime_std,key_resp_trial.corr_mean,key_resp_trial.corr_raw,key_resp_trial.corr_std,key_resp_trial.keys_raw,key_resp_trial.rt_mean,key_resp_trial.rt_raw,key_resp_trial.rt_std,order
MatchFaces,stimuli/MatchFaces.bmp,stimuli/EmptyFace.bmp,stimuli/EmptyFace.bmp,stimuli/EmptyFrame.bmp,stimuli/EmptyFrame.bmp,Null,None,None,3,1,1.0,15.467026710510254,15.467026710510254,0.0,19.0328369140625,19.0328369140625,0.0,18.03952407836914,18.03952407836914,0.0,0.0,0.0,0.0,,,,,0.0
Fear,stimuli/23M_FE_O.BMP,stimuli/23M_FE_O.BMP,stimuli/24M_FE_O.BMP,stimuli/EmptyFrame.bmp,stimuli/RedFrame.bmp,1,Fear,Male,3,1,1.0,19.324413299560547,19.324413299560547,0.0,23.045307159423828,23.045307159423828,0.0,22.05907440185547,22.05907440185547,0.0,1.0,1.0,0.0,'1',1.3896069526672363,1.3896069526672363,0.0,1.0
Fear,stimuli/19F_FE_O.BMP,stimuli/18F_FE_O.BMP,stimuli/19F_FE_O.BMP,stimuli/EmptyFrame.bmp,stimuli/RedFrame.bmp,2,Fear,Female,3,1,1.0,23.064212799072266,23.064212799072266,0.0,27.064308166503906,27.064308166503906,0.0,26.086706161499023,26.086706161499023,0.0,1.0,1.0,0.0,'2',1.0079938173294067,1.0079938173294067,0.0,2.0
Fear,stimuli/17F_FE_O.BMP,stimuli/17F_FE_O.BMP,stimuli/16F_FE_O.BMP,stimuli/EmptyFrame.bmp,stimuli/RedFrame.bmp,1,Fear,Female,3,1,1.0,27.089157104492188,27.089157104492188,0.0,31.08631706237793,31.08631706237793,0.0,30.095239639282227,30.095239639282227,0.0,1.0,1.0,0.0,'1',0.9127112030982971,0.9127112030982971,0.0,3.0
Fear,stimuli/21M_FE_O.BMP,stimuli/21M_FE_O.BMP,stimuli/22M_FE_O.BMP,stimuli/EmptyFrame.bmp,stimuli/RedFrame.bmp,1,Fear,Male,3,1,1.0,31.113327026367188,31.113327026367188,0.0,35.112239837646484,35.112239837646484,0.0,34.121665954589844,34.121665954589844,0.0,1.0,1.0,0.0,'1',0.9029372930526733,0.9029372930526733,0.0,4.0
Fear,stimuli/09F_FE_O.BMP,stimuli/07F_FE_O.BMP,stimuli/09F_FE_O.BMP,stimuli/EmptyFrame.bmp,stimuli/RedFrame.bmp,2,Fear,Female,3,1,1.0,35.14249038696289,35.14249038696289,0.0,39.13836669921875,39.13836669921875,0.0,38.14926528930664,38.14926528930664,0.0,1.0,1.0,0.0,'2',1.2284303903579712,1.2284303903579712,0.0,5.0
Fear,stimuli/08F_FE_O.BMP,stimuli/13F_FE_O.BMP,stimuli/08F_FE_O.BMP,stimuli/EmptyFrame.bmp,stimuli/RedFrame.bmp,2,Fear,Female,3,1,1.0,39.158687591552734,39.158687591552734,0.0,43.161861419677734,43.161861419677734,0.0,42.171363830566406,42.171363830566406,0.0,1.0,1.0,0.0,'2',0.989681601524353,0.989681601524353,0.0,6.0
Fear,stimuli/07F_FE_O.BMP,stimuli/07F_FE_O.BMP,stimuli/14F_FE_O.BMP,stimuli/EmptyFrame.bmp,stimuli/RedFrame.bmp,1,Fear,Female,3,1,1.0,43.18317413330078,43.18317413330078,0.0,47.17647933959961,47.17647933959961,0.0,46.18598937988281,46.18598937988281,0.0,1.0,1.0,0.0,'1',0.7294219732284546,0.7294219732284546,0.0,7.0
Fear,stimuli/26M_FE_O.BMP,stimuli/26M_FE_O.BMP,stimuli/28M_FE_O.BMP,stimuli/EmptyFrame.bmp,stimuli/RedFrame.bmp,1,Fear,Male,3,1,1.0,47.197959899902344,47.197959899902344,0.0,51.195735931396484,51.195735931396484,0.0,50.20833969116211,50.20833969116211,0.0,1.0,1.0,0.0,'1',0.6831625699996948,0.6831625699996948,0.0,8.0
Fear,stimuli/10F_FE_O.BMP,stimuli/11F_FE_O.BMP,stimuli/10F_FE_O.BMP,stimuli/EmptyFrame.bmp,stimuli/RedFrame.bmp,2,Fear,Female,3,1,1.0,51.21849060058594,51.21849060058594,0.0,55.20614242553711,55.20614242553711,0.0,54.22539138793945,54.22539138793945,0.0,1.0,1.0,0.0,'2',0.8504663705825806,0.8504663705825806,0.0,9.0
Fear,stimuli/29M_FE_O.BMP,stimuli/30M_FE_O.BMP,stimuli/29M_FE_O.BMP,stimuli/EmptyFrame.bmp,stimuli/RedFrame.bmp,2,Fear,Male,3,1,1.0,55.22941970825195,55.22941970825195,0.0,59.22502136230469,59.22502136230469,0.0,58.253334045410156,58.253334045410156,0.0,1.0,1.0,0.0,'2',0.7245805263519287,0.7245805263519287,0.0,10.0
MatchFaces,stimuli/MatchFaces.bmp,stimuli/EmptyFace.bmp,stimuli/EmptyFace.bmp,stimuli/EmptyFrame.bmp,stimuli/EmptyFrame.bmp,Null,None,None,3,1,1.0,59.408477783203125,59.408477783203125,0.0,63.23807907104492,63.23807907104492,0.0,62.236473083496094,62.236473083496094,0.0,0.0,0.0,0.0,,,,,11.0
Neutral,stimuli/07F_NE_C.BMP,stimuli/07F_NE_C.BMP,stimuli/14F_NE_C.BMP,stimuli/EmptyFrame.bmp,stimuli/RedFrame.bmp,1,Neutral,Female,3,1,1.0,63.33182907104492,63.33182907104492,0.0,67.25064086914062,67.25064086914062,0.0,66.26435089111328,66.26435089111328,0.0,1.0,1.0,0.0,'1',0.6855530738830566,0.6855530738830566,0.0,12.0
Neutral,stimuli/25M_NE_C.BMP,stimuli/29M_NE_C.BMP,stimuli/25M_NE_C.BMP,stimuli/EmptyFrame.bmp,stimuli/RedFrame.bmp,2,Neutral,Male,3,1,1.0,67.28409576416016,67.28409576416016,0.0,71.26792907714844,71.26792907714844,0.0,70.28062438964844,70.28062438964844,0.0,1.0,1.0,0.0,'2',0.7797363996505737,0.7797363996505737,0.0,13.0
Neutral,stimuli/26M_NE_C.BMP,stimuli/26M_NE_C.BMP,stimuli/28M_NE_C.BMP,stimuli/EmptyFrame.bmp,stimuli/RedFrame.bmp,1,Neutral,Male,3,1,1.0,71.29197692871094,71.29197692871094,0.0,75.28160095214844,75.28160095214844,0.0,74.2927017211914,74.2927017211914,0.0,1.0,1.0,0.0,'1',0.7130870223045349,0.7130870223045349,0.0,14.0
Neutral,stimuli/08F_NE_C.BMP,stimuli/13F_NE_C.BMP,stimuli/08F_NE_C.BMP,stimuli/EmptyFrame.bmp,stimuli/RedFrame.bmp,2,Neutral,Female,3,1,1.0,75.30663299560547,75.30663299560547,0.0,79.30241394042969,79.30241394042969,0.0,78.33003997802734,78.33003997802734,0.0,1.0,1.0,0.0,'2',0.8584752082824707,0.8584752082824707,0.0,15.0
Neutral,stimuli/09F_NE_C.BMP,stimuli/09F_NE_C.BMP,stimuli/12F_NE_C.BMP,stimuli/EmptyFrame.bmp,stimuli/RedFrame.bmp,1,Neutral,Female,3,1,1.0,79.3249282836914,79.3249282836914,0.0,83.3229751586914,83.3229751586914,0.0,82.33540344238281,82.33540344238281,0.0,1.0,1.0,0.0,'1',0.6116793155670166,0.6116793155670166,0.0,16.0
Neutral,stimuli/27M_NE_C.BMP,stimuli/26M_NE_C.BMP,stimuli/27M_NE_C.BMP,stimuli/EmptyFrame.bmp,stimuli/RedFrame.bmp,2,Neutral,Male,3,1,1.0,83.3514404296875,83.3514404296875,0.0,87.33576965332031,87.33576965332031,0.0,86.35598754882812,86.35598754882812,0.0,1.0,1.0,0.0,'2',0.6393135786056519,0.6393135786056519,0.0,17.0
Neutral,stimuli/28M_NE_C.BMP,stimuli/28M_NE_C.BMP,stimuli/25M_NE_C.BMP,stimuli/EmptyFrame.bmp,stimuli/RedFrame.bmp,1,Neutral,Male,3,1,1.0,87.36310577392578,87.36310577392578,0.0,91.35342407226562,91.35342407226562,0.0,90.35833740234375,90.35833740234375,0.0,1.0,1.0,0.0,'1',0.9422575831413269,0.9422575831413269,0.0,18.0
Neutral,stimuli/10F_NE_C.BMP,stimuli/11F_NE_C.BMP,stimuli/10F_NE_C.BMP,stimuli/EmptyFrame.bmp,stimuli/RedFrame.bmp,2,Neutral,Female,3,1,1.0,91.37572479248047,91.37572479248047,0.0,95.36573028564453,95.36573028564453,0.0,94.38252258300781,94.38252258300781,0.0,1.0,1.0,0.0,'2',0.6075659990310669,0.6075659990310669,0.0,19.0
Neutral,stimuli/29M_NE_C.BMP,stimuli/29M_NE_C.BMP,stimuli/24M_NE_C.BMP,stimuli/EmptyFrame.bmp,stimuli/RedFrame.bmp,1,Neutral,Male,3,1,1.0,95.38899993896484,95.38899993896484,0.0,99.3821029663086,99.3821029663086,0.0,98.3957748413086,98.3957748413086,0.0,1.0,1.0,0.0,'1',0.8496130108833313,0.8496130108833313,0.0,20.0
Neutral,stimuli/11F_NE_C.BMP,stimuli/10F_NE_C.BMP,stimuli/11F_NE_C.BMP,stimuli/EmptyFrame.bmp,stimuli/RedFrame.bmp,2,Neutral,Female,3,1,1.0,99.40107727050781,99.40107727050781,0.0,103.39997100830078,103.39997100830078,0.0,102.40693664550781,102.40693664550781,0.0,1.0,1.0,0.0,'2',0.5337569117546082,0.5337569117546082,0.0,21.0
MatchShape,stimuli/MatchShapes.bmp,stimuli/EmptyFace.bmp,stimuli/EmptyFace.bmp,stimuli/EmptyFrame.bmp,stimuli/EmptyFrame.bmp,Null,None,None,3,1,1.0,103.4253921508789,103.4253921508789,0.0,107.4018783569336,107.4018783569336,0.0,106.40617370605469,106.40617370605469,0.0,0.0,0.0,0.0,,,,,22.0
Shape,stimuli/circle.bmp,stimuli/vertical.bmp,stimuli/circle.bmp,stimuli/EmptyFrame.bmp,stimuli/RedFrame.bmp,2,Shape,None,3,1,1.0,107.43732452392578,107.43732452392578,0.0,111.41681671142578,111.41681671142578,0.0,110.42887878417969,110.42887878417969,0.0,1.0,1.0,0.0,'2',0.753150224685669,0.753150224685669,0.0,23.0
Shape,stimuli/horizontal.bmp,stimuli/circle.bmp,stimuli/horizontal.bmp,stimuli/EmptyFrame.bmp,stimuli/RedFrame.bmp,2,Shape,None,3,1,1.0,111.4356689453125,111.4356689453125,0.0,115.43402099609375,115.43402099609375,0.0,114.44074249267578,114.44074249267578,0.0,1.0,1.0,0.0,'2',0.6428524255752563,0.6428524255752563,0.0,24.0
Shape,stimuli/circle.bmp,stimuli/vertical.bmp,stimuli/circle.bmp,stimuli/EmptyFrame.bmp,stimuli/RedFrame.bmp,2,Shape,None,3,1,1.0,115.45222473144531,115.45222473144531,0.0,119.45219421386719,119.45219421386719,0.0,118.46515655517578,118.46515655517578,0.0,1.0,1.0,0.0,'2',0.766441285610199,0.766441285610199,0.0,25.0
Shape,stimuli/vertical.bmp,stimuli/circle.bmp,stimuli/vertical.bmp,stimuli/EmptyFrame.bmp,stimuli/RedFrame.bmp,2,Shape,None,3,1,1.0,119.47122192382812,119.47122192382812,0.0,123.46477508544922,123.46477508544922,0.0,122.48419952392578,122.48419952392578,0.0,1.0,1.0,0.0,'2',0.7759078741073608,0.7759078741073608,0.0,26.0
Shape,stimuli/vertical.bmp,stimuli/horizontal.bmp,stimuli/vertical.bmp,stimuli/EmptyFrame.bmp,stimuli/RedFrame.bmp,2,Shape,None,3,1,1.0,123.48472595214844,123.48472595214844,0.0,127.48788452148438,127.48788452148438,0.0,126.49345397949219,126.49345397949219,0.0,1.0,1.0,0.0,'2',0.9371190071105957,0.9371190071105957,0.0,27.0
Shape,stimuli/horizontal.bmp,stimuli/horizontal.bmp,stimuli/vertical.bmp,stimuli/EmptyFrame.bmp,stimuli/RedFrame.bmp,1,Shape,None,3,1,1.0,127.51316833496094,127.51316833496094,0.0,131.50022888183594,131.50022888183594,0.0,130.5128631591797,130.5128631591797,0.0,1.0,1.0,0.0,'1',0.970491886138916,0.970491886138916,0.0,28.0
Shape,stimuli/horizontal.bmp,stimuli/circle.bmp,stimuli/horizontal.bmp,stimuli/EmptyFrame.bmp,stimuli/RedFrame.bmp,2,Shape,None,3,1,1.0,131.52423095703125,131.52423095703125,0.0,135.51956176757812,135.51956176757812,0.0,134.52528381347656,134.52528381347656,0.0,1.0,1.0,0.0,'2',0.6502106189727783,0.6502106189727783,0.0,29.0
Shape,stimuli/circle.bmp,stimuli/circle.bmp,stimuli/vertical.bmp,stimuli/EmptyFrame.bmp,stimuli/RedFrame.bmp,1,Shape,None,3,1,1.0,135.5415496826172,135.5415496826172,0.0,139.53717041015625,139.53717041015625,0.0,138.55152893066406,138.55152893066406,0.0,1.0,1.0,0.0,'1',0.5638536810874939,0.5638536810874939,0.0,30.0
Shape,stimuli/vertical.bmp,stimuli/horizontal.bmp,stimuli/vertical.bmp,stimuli/EmptyFrame.bmp,stimuli/RedFrame.bmp,2,Shape,None,3,1,1.0,139.5605926513672,139.5605926513672,0.0,143.5487518310547,143.5487518310547,0.0,142.57205200195312,142.57205200195312,0.0,1.0,1.0,0.0,'2',0.6138104200363159,0.6138104200363159,0.0,31.0
Shape,stimuli/vertical.bmp,stimuli/vertical.bmp,stimuli/horizontal.bmp,stimuli/EmptyFrame.bmp,stimuli/RedFrame.bmp,1,Shape,None,3,1,1.0,143.57257080078125,143.57257080078125,0.0,147.56539916992188,147.56539916992188,0.0,146.57293701171875,146.57293701171875,0.0,1.0,1.0,0.0,'1',0.5882719159126282,0.5882719159126282,0.0,32.0
MatchFaces,stimuli/MatchFaces.bmp,stimuli/EmptyFace.bmp,stimuli/EmptyFace.bmp,stimuli/EmptyFrame.bmp,stimuli/EmptyFrame.bmp,Null,None,None,3,1,1.0,147.74363708496094,147.74363708496094,0.0,151.5693817138672,151.5693817138672,0.0,150.58409118652344,150.58409118652344,0.0,0.0,0.0,0.0,,,,,33.0
Anger,stimuli/20M_AN_O.BMP,stimuli/34M_AN_O.BMP,stimuli/20M_AN_O.BMP,stimuli/EmptyFrame.bmp,stimuli/RedFrame.bmp,2,Anger,Male,3,1,1.0,151.63690185546875,151.63690185546875,0.0,155.5849609375,155.5849609375,0.0,154.5997314453125,154.5997314453125,0.0,1.0,1.0,0.0,'2',0.699447512626648,0.699447512626648,0.0,34.0
Anger,stimuli/01F_AN_O.bmp,stimuli/19F_AN_O.BMP,stimuli/01F_AN_O.bmp,stimuli/EmptyFrame.bmp,stimuli/RedFrame.bmp,2,Anger,Female,3,1,1.0,155.61582946777344,155.61582946777344,0.0,159.598388671875,159.598388671875,0.0,158.6103515625,158.6103515625,0.0,1.0,1.0,0.0,'2',0.6484197974205017,0.6484197974205017,0.0,35.0
Anger,stimuli/06F_AN_O.bmp,stimuli/15F_AN_O.BMP,stimuli/06F_AN_O.bmp,stimuli/EmptyFrame.bmp,stimuli/RedFrame.bmp,2,Anger,Female,3,1,1.0,159.6189727783203,159.6189727783203,0.0,163.62081909179688,163.62081909179688,0.0,162.64108276367188,162.64108276367188,0.0,1.0,1.0,0.0,'2',0.7158086895942688,0.7158086895942688,0.0,36.0
Anger,stimuli/42M_AN_O.BMP,stimuli/42M_AN_O.BMP,stimuli/43M_AN_O.BMP,stimuli/EmptyFrame.bmp,stimuli/RedFrame.bmp,1,Anger,Male,3,1,1.0,163.64828491210938,163.64828491210938,0.0,167.63201904296875,167.63201904296875,0.0,166.66171264648438,166.66171264648438,0.0,1.0,1.0,0.0,'1',0.9383624196052551,0.9383624196052551,0.0,37.0
Anger,stimuli/40M_AN_O.BMP,stimuli/41M_AN_O.BMP,stimuli/40M_AN_O.BMP,stimuli/EmptyFrame.bmp,stimuli/RedFrame.bmp,2,Anger,Male,3,1,1.0,167.65719604492188,167.65719604492188,0.0,171.65087890625,171.65087890625,0.0,170.66549682617188,170.66549682617188,0.0,1.0,1.0,0.0,'2',0.5656523108482361,0.5656523108482361,0.0,38.0
Anger,stimuli/08F_AN_O.BMP,stimuli/08F_AN_O.BMP,stimuli/13F_AN_O.BMP,stimuli/EmptyFrame.bmp,stimuli/RedFrame.bmp,1,Anger,Female,3,1,1.0,171.67384338378906,171.67384338378906,0.0,175.66177368164062,175.66177368164062,0.0,174.67941284179688,174.67941284179688,0.0,1.0,1.0,0.0,'1',0.8429058790206909,0.8429058790206909,0.0,39.0
Anger,stimuli/09F_AN_O.BMP,stimuli/12F_AN_O.BMP,stimuli/09F_AN_O.BMP,stimuli/EmptyFrame.bmp,stimuli/RedFrame.bmp,2,Anger,Female,3,1,1.0,175.68353271484375,175.68353271484375,0.0,179.68478393554688,179.68478393554688,0.0,178.68983459472656,178.68983459472656,0.0,1.0,1.0,0.0,'2',0.5670022964477539,0.5670022964477539,0.0,40.0
Anger,stimuli/34M_AN_O.BMP,stimuli/35M_AN_O.BMP,stimuli/34M_AN_O.BMP,stimuli/EmptyFrame.bmp,stimuli/RedFrame.bmp,2,Anger,Male,3,1,1.0,179.70460510253906,179.70460510253906,0.0,183.70216369628906,183.70216369628906,0.0,182.72515869140625,182.72515869140625,0.0,1.0,1.0,0.0,'2',0.6831735968589783,0.6831735968589783,0.0,41.0
Anger,stimuli/24M_AN_O.BMP,stimuli/24M_AN_O.BMP,stimuli/30M_AN_O.BMP,stimuli/EmptyFrame.bmp,stimuli/RedFrame.bmp,1,Anger,Male,3,1,1.0,183.72402954101562,183.72402954101562,0.0,187.72122192382812,187.72122192382812,0.0,186.72747802734375,186.72747802734375,0.0,1.0,1.0,0.0,'1',0.6351348757743835,0.6351348757743835,0.0,42.0
Anger,stimuli/03F_AN_O.bmp,stimuli/03F_AN_O.bmp,stimuli/17F_AN_O.BMP,stimuli/EmptyFrame.bmp,stimuli/RedFrame.bmp,1,Anger,Female,3,1,1.0,187.75250244140625,187.75250244140625,0.0,191.73397827148438,191.73397827148438,0.0,190.74295043945312,190.74295043945312,0.0,1.0,1.0,0.0,'1',0.6587967276573181,0.6587967276573181,0.0,43.0
MatchFaces,stimuli/MatchFaces.bmp,stimuli/EmptyFace.bmp,stimuli/EmptyFace.bmp,stimuli/EmptyFrame.bmp,stimuli/EmptyFrame.bmp,Null,None,None,3,1,1.0,191.8848419189453,191.8848419189453,0.0,195.7436065673828,195.7436065673828,0.0,194.74867248535156,194.74867248535156,0.0,0.0,0.0,0.0,,,,,44.0
Happy,stimuli/06F_HA_O.bmp,stimuli/07F_HA_O.BMP,stimuli/06F_HA_O.bmp,stimuli/EmptyFrame.bmp,stimuli/RedFrame.bmp,2,Happy,Female,3,1,1.0,195.8102264404297,195.8102264404297,0.0,199.76010131835938,199.76010131835938,0.0,198.832275390625,198.832275390625,0.0,1.0,1.0,0.0,'2',0.7594631910324097,0.7594631910324097,0.0,45.0
Happy,stimuli/13F_HA_O.BMP,stimuli/13F_HA_O.BMP,stimuli/12F_HA_O.BMP,stimuli/EmptyFrame.bmp,stimuli/RedFrame.bmp,1,Happy,Female,3,1,1.0,199.78091430664062,199.78091430664062,0.0,203.77435302734375,203.77435302734375,0.0,202.7875213623047,202.7875213623047,0.0,1.0,1.0,0.0,'1',0.8426682949066162,0.8426682949066162,0.0,46.0
Happy,stimuli/41M_HA_O.BMP,stimuli/41M_HA_O.BMP,stimuli/40M_HA_O.BMP,stimuli/EmptyFrame.bmp,stimuli/RedFrame.bmp,1,Happy,Male,3,1,1.0,203.7999267578125,203.7999267578125,0.0,207.7978973388672,207.7978973388672,0.0,206.7981414794922,206.7981414794922,0.0,1.0,1.0,0.0,'1',0.6071817874908447,0.6071817874908447,0.0,47.0
Happy,stimuli/03F_HA_O.bmp,stimuli/05F_HA_O.bmp,stimuli/03F_HA_O.bmp,stimuli/EmptyFrame.bmp,stimuli/RedFrame.bmp,2,Happy,Female,3,1,1.0,207.8235626220703,207.8235626220703,0.0,211.80931091308594,211.80931091308594,0.0,210.8275604248047,210.8275604248047,0.0,1.0,1.0,0.0,'2',0.754367470741272,0.754367470741272,0.0,48.0
Happy,stimuli/24M_HA_O.BMP,stimuli/24M_HA_O.BMP,stimuli/25M_HA_O.BMP,stimuli/EmptyFrame.bmp,stimuli/RedFrame.bmp,1,Happy,Male,3,1,1.0,211.83522033691406,211.83522033691406,0.0,215.83059692382812,215.83059692382812,0.0,214.83753967285156,214.83753967285156,0.0,1.0,1.0,0.0,'1',0.8128527998924255,0.8128527998924255,0.0,49.0
Happy,stimuli/19F_HA_O.BMP,stimuli/19F_HA_O.BMP,stimuli/18F_HA_O.BMP,stimuli/EmptyFrame.bmp,stimuli/RedFrame.bmp,1,Happy,Female,3,1,1.0,215.85092163085938,215.85092163085938,0.0,219.84442138671875,219.84442138671875,0.0,218.85496520996094,218.85496520996094,0.0,1.0,1.0,0.0,'1',0.6850618720054626,0.6850618720054626,0.0,50.0
Happy,stimuli/01F_HA_O.bmp,stimuli/01F_HA_O.bmp,stimuli/02F_HA_O.bmp,stimuli/EmptyFrame.bmp,stimuli/RedFrame.bmp,1,Happy,Female,3,1,1.0,219.86680603027344,219.86680603027344,0.0,223.86123657226562,223.86123657226562,0.0,222.8674774169922,222.8674774169922,0.0,1.0,1.0,0.0,'1',0.6239205002784729,0.6239205002784729,0.0,51.0
Happy,stimuli/22M_HA_O.BMP,stimuli/23M_HA_O.BMP,stimuli/22M_HA_O.BMP,stimuli/EmptyFrame.bmp,stimuli/RedFrame.bmp,2,Happy,Male,3,1,1.0,223.8838348388672,223.8838348388672,0.0,227.8709716796875,227.8709716796875,0.0,226.89874267578125,226.89874267578125,0.0,1.0,1.0,0.0,'2',0.9837886095046997,0.9837886095046997,0.0,52.0
Happy,stimuli/35M_HA_O.BMP,stimuli/34M_HA_O.BMP,stimuli/35M_HA_O.BMP,stimuli/EmptyFrame.bmp,stimuli/RedFrame.bmp,2,Happy,Male,3,1,1.0,227.89410400390625,227.89410400390625,0.0,231.89195251464844,231.89195251464844,0.0,230.90162658691406,230.90162658691406,0.0,1.0,1.0,0.0,'2',0.7566764950752258,0.7566764950752258,0.0,53.0
Happy,stimuli/39M_HA_O.BMP,stimuli/38M_HA_O.BMP,stimuli/39M_HA_O.BMP,stimuli/EmptyFrame.bmp,stimuli/RedFrame.bmp,2,Happy,Male,3,1,1.0,231.91720581054688,231.91720581054688,0.0,235.90306091308594,235.90306091308594,0.0,234.92117309570312,234.92117309570312,0.0,1.0,1.0,0.0,'2',0.679180383682251,0.679180383682251,0.0,54.0
Match Shape,stimuli/MatchShapes.bmp,stimuli/EmptyFace.bmp,stimuli/EmptyFace.bmp,stimuli/EmptyFrame.bmp,stimuli/EmptyFrame.bmp,Null,None,None,3,1,1.0,235.92684936523438,235.92684936523438,0.0,239.9149932861328,239.9149932861328,0.0,238.9208221435547,238.9208221435547,0.0,0.0,0.0,0.0,,,,,55.0
Shape,stimuli/horizontal.bmp,stimuli/horizontal.bmp,stimuli/vertical.bmp,stimuli/EmptyFrame.bmp,stimuli/RedFrame.bmp,1,Shape,None,3,1,1.0,239.94459533691406,239.94459533691406,0.0,243.93136596679688,243.93136596679688,0.0,242.9513702392578,242.9513702392578,0.0,1.0,1.0,0.0,'1',0.6377300024032593,0.6377300024032593,0.0,56.0
Shape,stimuli/horizontal.bmp,stimuli/horizontal.bmp,stimuli/circle.bmp,stimuli/EmptyFrame.bmp,stimuli/RedFrame.bmp,1,Shape,None,3,1,1.0,243.95066833496094,243.95066833496094,0.0,247.96055603027344,247.96055603027344,0.0,246.96865844726562,246.96865844726562,0.0,1.0,1.0,0.0,'1',0.618712306022644,0.618712306022644,0.0,57.0
Shape,stimuli/circle.bmp,stimuli/vertical.bmp,stimuli/circle.bmp,stimuli/EmptyFrame.bmp,stimuli/RedFrame.bmp,2,Shape,None,3,1,1.0,247.98280334472656,247.98280334472656,0.0,251.97537231445312,251.97537231445312,0.0,250.99423217773438,250.99423217773438,0.0,1.0,1.0,0.0,'2',0.6354629993438721,0.6354629993438721,0.0,58.0
Shape,stimuli/vertical.bmp,stimuli/vertical.bmp,stimuli/circle.bmp,stimuli/EmptyFrame.bmp,stimuli/RedFrame.bmp,1,Shape,None,3,1,1.0,252.0023651123047,252.0023651123047,0.0,255.99575805664062,255.99575805664062,0.0,255.00865173339844,255.00865173339844,0.0,1.0,1.0,0.0,'1',0.6150040030479431,0.6150040030479431,0.0,59.0
Shape,stimuli/horizontal.bmp,stimuli/horizontal.bmp,stimuli/circle.bmp,stimuli/EmptyFrame.bmp,stimuli/RedFrame.bmp,1,Shape,None,3,1,1.0,256.0186767578125,256.0186767578125,0.0,260.01141357421875,260.01141357421875,0.0,259.0499572753906,259.0499572753906,0.0,1.0,1.0,0.0,'1',0.8404061198234558,0.8404061198234558,0.0,60.0
Shape,stimuli/vertical.bmp,stimuli/vertical.bmp,stimuli/circle.bmp,stimuli/EmptyFrame.bmp,stimuli/RedFrame.bmp,1,Shape,None,3,1,1.0,260.0310363769531,260.0310363769531,0.0,264.0206298828125,264.0206298828125,0.0,263.04339599609375,263.04339599609375,0.0,1.0,1.0,0.0,'1',0.5375245213508606,0.5375245213508606,0.0,61.0
Shape,stimuli/horizontal.bmp,stimuli/circle.bmp,stimuli/horizontal.bmp,stimuli/EmptyFrame.bmp,stimuli/RedFrame.bmp,2,Shape,None,3,1,1.0,264.0440673828125,264.0440673828125,0.0,268.0368347167969,268.0368347167969,0.0,267.0423889160156,267.0423889160156,0.0,1.0,1.0,0.0,'2',0.5652667284011841,0.5652667284011841,0.0,62.0
Shape,stimuli/circle.bmp,stimuli/circle.bmp,stimuli/horizontal.bmp,stimuli/EmptyFrame.bmp,stimuli/RedFrame.bmp,1,Shape,None,3,1,1.0,268.06048583984375,268.06048583984375,0.0,272.0520324707031,272.0520324707031,0.0,271.07318115234375,271.07318115234375,0.0,1.0,1.0,0.0,'1',0.5758464932441711,0.5758464932441711,0.0,63.0
Shape,stimuli/circle.bmp,stimuli/horizontal.bmp,stimuli/circle.bmp,stimuli/EmptyFrame.bmp,stimuli/RedFrame.bmp,2,Shape,None,3,1,1.0,272.0724182128906,272.0724182128906,0.0,276.072265625,276.072265625,0.0,275.0915222167969,275.0915222167969,0.0,1.0,1.0,0.0,'2',0.8263875842094421,0.8263875842094421,0.0,64.0
Shape,stimuli/vertical.bmp,stimuli/vertical.bmp,stimuli/horizontal.bmp,stimuli/EmptyFrame.bmp,stimuli/RedFrame.bmp,1,Shape,None,3,1,1.0,276.09454345703125,276.09454345703125,0.0,280.0858459472656,280.0858459472656,0.0,279.09698486328125,279.09698486328125,0.0,1.0,1.0,0.0,'1',0.5515521764755249,0.5515521764755249,0.0,65.0
MatchFaces,stimuli/MatchFaces.bmp,stimuli/EmptyFace.bmp,stimuli/EmptyFace.bmp,stimuli/EmptyFrame.bmp,stimuli/EmptyFrame.bmp,Null,None,None,3,1,1.0,280.3322448730469,280.3322448730469,0.0,284.1033935546875,284.1033935546875,0.0,283.09869384765625,283.09869384765625,0.0,0.0,0.0,0.0,,,,,66.0
Neutral,stimuli/20M_NE_C.BMP,stimuli/21M_NE_C.BMP,stimuli/20M_NE_C.BMP,stimuli/EmptyFrame.bmp,stimuli/RedFrame.bmp,2,Neutral,Male,3,1,1.0,284.17669677734375,284.17669677734375,0.0,288.11968994140625,288.11968994140625,0.0,287.13397216796875,287.13397216796875,0.0,1.0,1.0,0.0,'2',1.1912219524383545,1.1912219524383545,0.0,67.0
Neutral,stimuli/01F_NE_C.bmp,stimuli/01F_NE_C.bmp,stimuli/02F_NE_C.bmp,stimuli/EmptyFrame.bmp,stimuli/RedFrame.bmp,1,Neutral,Female,3,1,1.0,288.1469421386719,288.1469421386719,0.0,292.1378479003906,292.1378479003906,0.0,291.1502685546875,291.1502685546875,0.0,1.0,1.0,0.0,'1',0.6453989148139954,0.6453989148139954,0.0,68.0
Neutral,stimuli/22M_NE_C.BMP,stimuli/23M_NE_C.BMP,stimuli/22M_NE_C.BMP,stimuli/EmptyFrame.bmp,stimuli/RedFrame.bmp,2,Neutral,Male,3,1,1.0,292.1690979003906,292.1690979003906,0.0,296.1541748046875,296.1541748046875,0.0,295.16015625,295.16015625,0.0,1.0,1.0,0.0,'2',0.785149097442627,0.785149097442627,0.0,69.0
Neutral,stimuli/24M_NE_C.BMP,stimuli/24M_NE_C.BMP,stimuli/25M_NE_C.BMP,stimuli/EmptyFrame.bmp,stimuli/RedFrame.bmp,1,Neutral,Male,3,1,1.0,296.1793212890625,296.1793212890625,0.0,300.1692199707031,300.1692199707031,0.0,299.1895751953125,299.1895751953125,0.0,1.0,1.0,0.0,'1',0.7869769930839539,0.7869769930839539,0.0,70.0
Neutral,stimuli/03F_NE_C.bmp,stimuli/05F_NE_C.bmp,stimuli/03F_NE_C.bmp,stimuli/EmptyFrame.bmp,stimuli/RedFrame.bmp,2,Neutral,Female,3,1,1.0,300.19122314453125,300.19122314453125,0.0,304.18890380859375,304.18890380859375,0.0,303.1936950683594,303.1936950683594,0.0,1.0,1.0,0.0,'2',0.6356813907623291,0.6356813907623291,0.0,71.0
Neutral,stimuli/26M_NE_C.BMP,stimuli/26M_NE_C.BMP,stimuli/27M_NE_C.BMP,stimuli/EmptyFrame.bmp,stimuli/RedFrame.bmp,1,Neutral,Male,3,1,1.0,304.2103271484375,304.2103271484375,0.0,308.2147521972656,308.2147521972656,0.0,307.2147216796875,307.2147216796875,0.0,1.0,1.0,0.0,'1',0.682792603969574,0.682792603969574,0.0,72.0
Neutral,stimuli/06F_NE_C.bmp,stimuli/07F_NE_C.BMP,stimuli/06F_NE_C.bmp,stimuli/EmptyFrame.bmp,stimuli/RedFrame.bmp,2,Neutral,Female,3,1,1.0,308.2389221191406,308.2389221191406,0.0,312.23492431640625,312.23492431640625,0.0,311.2416687011719,311.2416687011719,0.0,1.0,1.0,0.0,'2',0.8074995875358582,0.8074995875358582,0.0,73.0
Neutral,stimuli/08F_NE_C.BMP,stimuli/08F_NE_C.BMP,stimuli/09F_NE_C.BMP,stimuli/EmptyFrame.bmp,stimuli/RedFrame.bmp,1,Neutral,Female,3,1,1.0,312.2574462890625,312.2574462890625,0.0,316.25042724609375,316.25042724609375,0.0,315.2677917480469,315.2677917480469,0.0,1.0,1.0,0.0,'1',0.7065039873123169,0.7065039873123169,0.0,74.0
Neutral,stimuli/28M_NE_C.BMP,stimuli/29M_NE_C.BMP,stimuli/28M_NE_C.BMP,stimuli/EmptyFrame.bmp,stimuli/RedFrame.bmp,2,Neutral,Male,3,1,1.0,316.276611328125,316.276611328125,0.0,320.2718200683594,320.2718200683594,0.0,319.28533935546875,319.28533935546875,0.0,1.0,1.0,0.0,'2',0.8269115090370178,0.8269115090370178,0.0,75.0
Neutral,stimuli/10F_NE_C.BMP,stimuli/10F_NE_C.BMP,stimuli/06F_NE_C.bmp,stimuli/EmptyFrame.bmp,stimuli/RedFrame.bmp,1,Neutral,Female,3,1,1.0,320.2995300292969,320.2995300292969,0.0,324.2839660644531,324.2839660644531,0.0,323.30352783203125,323.30352783203125,0.0,1.0,1.0,0.0,'1',0.5546488761901855,0.5546488761901855,0.0,76.0
MatchFaces,stimuli/MatchFaces.bmp,stimuli/EmptyFace.bmp,stimuli/EmptyFace.bmp,stimuli/EmptyFrame.bmp,stimuli/EmptyFrame.bmp,Null,None,None,3,1,1.0,324.4569396972656,324.4569396972656,0.0,328.2856750488281,328.2856750488281,0.0,327.3006591796875,327.3006591796875,0.0,0.0,0.0,0.0,,,,,77.0
Happy,stimuli/28M_HA_O.BMP,stimuli/29M_HA_O.BMP,stimuli/28M_HA_O.BMP,stimuli/EmptyFrame.bmp,stimuli/RedFrame.bmp,2,Happy,Male,3,1,1.0,328.3536682128906,328.3536682128906,0.0,332.30230712890625,332.30230712890625,0.0,331.3109436035156,331.3109436035156,0.0,1.0,1.0,0.0,'2',0.9326013922691345,0.9326013922691345,0.0,78.0
Happy,stimuli/10F_HA_O.BMP,stimuli/10F_HA_O.BMP,stimuli/06F_HA_O.bmp,stimuli/EmptyFrame.bmp,stimuli/RedFrame.bmp,1,Happy,Female,3,1,1.0,332.3278503417969,332.3278503417969,0.0,336.32098388671875,336.32098388671875,0.0,335.3296813964844,335.3296813964844,0.0,1.0,1.0,0.0,'1',0.5698438882827759,0.5698438882827759,0.0,79.0
Happy,stimuli/26M_HA_O.BMP,stimuli/26M_HA_O.BMP,stimuli/27M_HA_O.BMP,stimuli/EmptyFrame.bmp,stimuli/RedFrame.bmp,1,Happy,Male,3,1,1.0,336.3440856933594,336.3440856933594,0.0,340.3392028808594,340.3392028808594,0.0,339.3437194824219,339.3437194824219,0.0,1.0,1.0,0.0,'1',0.5902087092399597,0.5902087092399597,0.0,80.0
Happy,stimuli/20M_HA_O.BMP,stimuli/21M_HA_O.BMP,stimuli/20M_HA_O.BMP,stimuli/EmptyFrame.bmp,stimuli/RedFrame.bmp,2,Happy,Male,3,1,1.0,340.3614501953125,340.3614501953125,0.0,344.36297607421875,344.36297607421875,0.0,343.37353515625,343.37353515625,0.0,1.0,1.0,0.0,'2',0.5818536877632141,0.5818536877632141,0.0,81.0
Happy,stimuli/37M_HA_O.BMP,stimuli/37M_HA_O.BMP,stimuli/36M_HA_O.BMP,stimuli/EmptyFrame.bmp,stimuli/RedFrame.bmp,1,Happy,Male,3,1,1.0,344.3829040527344,344.3829040527344,0.0,348.3759460449219,348.3759460449219,0.0,347.3858947753906,347.3858947753906,0.0,1.0,1.0,0.0,'1',0.7483451962471008,0.7483451962471008,0.0,82.0
Happy,stimuli/43M_HA_O.BMP,stimuli/42M_HA_O.BMP,stimuli/43M_HA_O.BMP,stimuli/EmptyFrame.bmp,stimuli/RedFrame.bmp,2,Happy,Male,3,1,1.0,348.39813232421875,348.39813232421875,0.0,352.3965148925781,352.3965148925781,0.0,351.4065246582031,351.4065246582031,0.0,1.0,1.0,0.0,'2',0.5382282733917236,0.5382282733917236,0.0,83.0
Happy,stimuli/11F_HA_O.BMP,stimuli/10F_HA_O.BMP,stimuli/11F_HA_O.BMP,stimuli/EmptyFrame.bmp,stimuli/RedFrame.bmp,2,Happy,Female,3,1,1.0,352.41912841796875,352.41912841796875,0.0,356.40875244140625,356.40875244140625,0.0,355.4231262207031,355.4231262207031,0.0,1.0,1.0,0.0,'2',0.645714521408081,0.645714521408081,0.0,84.0
Happy,stimuli/17F_HA_O.BMP,stimuli/16F_HA_O.BMP,stimuli/17F_HA_O.BMP,stimuli/EmptyFrame.bmp,stimuli/RedFrame.bmp,2,Happy,Female,3,1,1.0,356.431884765625,356.431884765625,0.0,360.4337463378906,360.4337463378906,0.0,359.4320068359375,359.4320068359375,0.0,1.0,1.0,0.0,'2',0.7841408252716064,0.7841408252716064,0.0,85.0
Happy,stimuli/15F_HA_O.BMP,stimuli/15F_HA_O.BMP,stimuli/14F_HA_O.BMP,stimuli/EmptyFrame.bmp,stimuli/RedFrame.bmp,1,Happy,Female,3,1,1.0,360.4600830078125,360.4600830078125,0.0,364.44970703125,364.44970703125,0.0,363.4622497558594,363.4622497558594,0.0,1.0,1.0,0.0,'1',0.6721646785736084,0.6721646785736084,0.0,86.0
Happy,stimuli/08F_HA_O.BMP,stimuli/08F_HA_O.BMP,stimuli/09F_HA_O.BMP,stimuli/EmptyFrame.bmp,stimuli/RedFrame.bmp,1,Happy,Female,3,1,1.0,364.4727478027344,364.4727478027344,0.0,368.4668273925781,368.4668273925781,0.0,367.485595703125,367.485595703125,0.0,1.0,1.0,0.0,'1',0.7594887018203735,0.7594887018203735,0.0,87.0
MatchFaces,stimuli/MatchFaces.bmp,stimuli/EmptyFace.bmp,stimuli/EmptyFace.bmp,stimuli/EmptyFrame.bmp,stimuli/EmptyFrame.bmp,Null,None,None,3,1,1.0,368.6906433105469,368.6906433105469,0.0,372.4814453125,372.4814453125,0.0,371.48223876953125,371.48223876953125,0.0,0.0,0.0,0.0,,,,,88.0
Fear,stimuli/34M_FE_O.BMP,stimuli/34M_FE_O.BMP,stimuli/33M_FE_O.BMP,stimuli/EmptyFrame.bmp,stimuli/RedFrame.bmp,1,Fear,Male,3,1,1.0,372.5674133300781,372.5674133300781,0.0,376.4988708496094,376.4988708496094,0.0,375.5233459472656,375.5233459472656,0.0,1.0,1.0,0.0,'1',0.6289553046226501,0.6289553046226501,0.0,89.0
Fear,stimuli/28M_FE_O.BMP,stimuli/28M_FE_O.BMP,stimuli/25M_FE_O.BMP,stimuli/EmptyFrame.bmp,stimuli/RedFrame.bmp,1,Fear,Male,3,1,1.0,376.52117919921875,376.52117919921875,0.0,380.5099182128906,380.5099182128906,0.0,379.526123046875,379.526123046875,0.0,1.0,1.0,0.0,'1',0.722754716873169,0.722754716873169,0.0,90.0
Fear,stimuli/11F_FE_O.BMP,stimuli/10F_FE_O.BMP,stimuli/11F_FE_O.BMP,stimuli/EmptyFrame.bmp,stimuli/RedFrame.bmp,2,Fear,Female,3,1,1.0,380.53460693359375,380.53460693359375,0.0,384.533935546875,384.533935546875,0.0,383.53765869140625,383.53765869140625,0.0,1.0,1.0,0.0,'2',0.5338929295539856,0.5338929295539856,0.0,91.0
Fear,stimuli/27M_FE_O.BMP,stimuli/26M_FE_O.BMP,stimuli/27M_FE_O.BMP,stimuli/EmptyFrame.bmp,stimuli/RedFrame.bmp,2,Fear,Male,3,1,1.0,384.5567626953125,384.5567626953125,0.0,388.5506286621094,388.5506286621094,0.0,387.5712585449219,387.5712585449219,0.0,1.0,1.0,0.0,'2',0.7578558921813965,0.7578558921813965,0.0,92.0
Fear,stimuli/11F_FE_O.BMP,stimuli/12F_FE_O.BMP,stimuli/11F_FE_O.BMP,stimuli/EmptyFrame.bmp,stimuli/RedFrame.bmp,2,Fear,Female,3,1,1.0,388.5753479003906,388.5753479003906,0.0,392.5700378417969,392.5700378417969,0.0,391.5738220214844,391.5738220214844,0.0,1.0,1.0,0.0,'2',0.5213168263435364,0.5213168263435364,0.0,93.0
Fear,stimuli/31M_FE_O.BMP,stimuli/31M_FE_O.BMP,stimuli/38M_FE_O.BMP,stimuli/EmptyFrame.bmp,stimuli/RedFrame.bmp,1,Fear,Male,3,1,1.0,392.59588623046875,392.59588623046875,0.0,396.586181640625,396.586181640625,0.0,395.6018371582031,395.6018371582031,0.0,1.0,1.0,0.0,'1',0.5913562774658203,0.5913562774658203,0.0,94.0
Fear,stimuli/29M_FE_O.BMP,stimuli/29M_FE_O.BMP,stimuli/24M_FE_O.BMP,stimuli/EmptyFrame.bmp,stimuli/RedFrame.bmp,1,Fear,Male,3,1,1.0,396.60888671875,396.60888671875,0.0,400.5994873046875,400.5994873046875,0.0,399.61065673828125,399.61065673828125,0.0,1.0,1.0,0.0,'1',0.6751514077186584,0.6751514077186584,0.0,95.0
Fear,stimuli/25M_FE_O.BMP,stimuli/29M_FE_O.BMP,stimuli/25M_FE_O.BMP,stimuli/EmptyFrame.bmp,stimuli/RedFrame.bmp,2,Fear,Male,3,1,1.0,400.6246643066406,400.6246643066406,0.0,404.6123046875,404.6123046875,0.0,403.6246337890625,403.6246337890625,0.0,1.0,1.0,0.0,'2',0.6468030214309692,0.6468030214309692,0.0,96.0
Fear,stimuli/15F_FE_O.BMP,stimuli/18F_FE_O.BMP,stimuli/15F_FE_O.BMP,stimuli/EmptyFrame.bmp,stimuli/RedFrame.bmp,2,Fear,Female,3,1,1.0,404.6367492675781,404.6367492675781,0.0,408.6226806640625,408.6226806640625,0.0,407.6404724121094,407.6404724121094,0.0,1.0,1.0,0.0,'2',0.6217681765556335,0.6217681765556335,0.0,97.0
Fear,stimuli/09F_FE_O.BMP,stimuli/09F_FE_O.BMP,stimuli/12F_FE_O.BMP,stimuli/EmptyFrame.bmp,stimuli/RedFrame.bmp,1,Fear,Female,3,1,1.0,408.64935302734375,408.64935302734375,0.0,412.6422119140625,412.6422119140625,0.0,411.6585693359375,411.6585693359375,0.0,1.0,1.0,0.0,'1',0.5317214727401733,0.5317214727401733,0.0,98.0
MatchFaces,stimuli/MatchFaces.bmp,stimuli/EmptyFace.bmp,stimuli/EmptyFace.bmp,stimuli/EmptyFrame.bmp,stimuli/EmptyFrame.bmp,Null,None,None,3,1,1.0,412.8777770996094,412.8777770996094,0.0,416.6474609375,416.6474609375,0.0,415.6560974121094,415.6560974121094,0.0,0.0,0.0,0.0,,,,,99.0
Anger,stimuli/23M_AN_O.BMP,stimuli/23M_AN_O.BMP,stimuli/31M_AN_O.BMP,stimuli/EmptyFrame.bmp,stimuli/RedFrame.bmp,1,Anger,Male,3,1,1.0,416.716796875,416.716796875,0.0,420.67120361328125,420.67120361328125,0.0,419.6761169433594,419.6761169433594,0.0,1.0,1.0,0.0,'1',0.7098810076713562,0.7098810076713562,0.0,100.0
Anger,stimuli/36M_AN_O.BMP,stimuli/37M_AN_O.BMP,stimuli/36M_AN_O.BMP,stimuli/EmptyFrame.bmp,stimuli/RedFrame.bmp,2,Anger,Male,3,1,1.0,420.6942138671875,420.6942138671875,0.0,424.6910705566406,424.6910705566406,0.0,423.70458984375,423.70458984375,0.0,1.0,1.0,0.0,'2',0.6309276223182678,0.6309276223182678,0.0,101.0
Anger,stimuli/38M_AN_O.BMP,stimuli/39M_AN_O.BMP,stimuli/38M_AN_O.BMP,stimuli/EmptyFrame.bmp,stimuli/RedFrame.bmp,2,Anger,Male,3,1,1.0,424.7094421386719,424.7094421386719,0.0,428.70599365234375,428.70599365234375,0.0,427.7184753417969,427.7184753417969,0.0,1.0,1.0,0.0,'2',0.7420623898506165,0.7420623898506165,0.0,102.0
Anger,stimuli/02f_an_o.bmp,stimuli/18F_AN_O.BMP,stimuli/02f_an_o.bmp,stimuli/EmptyFrame.bmp,stimuli/RedFrame.bmp,2,Anger,Female,3,1,1.0,428.7358093261719,428.7358093261719,0.0,432.726806640625,432.726806640625,0.0,431.7274169921875,431.7274169921875,0.0,1.0,1.0,0.0,'2',0.5987886786460876,0.5987886786460876,0.0,103.0
Anger,stimuli/22M_AN_O.BMP,stimuli/32M_AN_O.BMP,stimuli/22M_AN_O.BMP,stimuli/EmptyFrame.bmp,stimuli/RedFrame.bmp,2,Anger,Male,3,1,1.0,432.74810791015625,432.74810791015625,0.0,436.7464904785156,436.7464904785156,0.0,435.75616455078125,435.75616455078125,0.0,1.0,1.0,0.0,'2',0.5739716291427612,0.5739716291427612,0.0,104.0
Anger,stimuli/12F_AN_O.BMP,stimuli/12F_AN_O.BMP,stimuli/13F_AN_O.BMP,stimuli/EmptyFrame.bmp,stimuli/RedFrame.bmp,1,Anger,Female,3,1,1.0,436.76666259765625,436.76666259765625,0.0,440.76641845703125,440.76641845703125,0.0,439.7808837890625,439.7808837890625,0.0,1.0,1.0,0.0,'1',0.7317487001419067,0.7317487001419067,0.0,105.0
Anger,stimuli/05F_AN_O.bmp,stimuli/05F_AN_O.bmp,stimuli/16F_AN_O.BMP,stimuli/EmptyFrame.bmp,stimuli/RedFrame.bmp,1,Anger,Female,3,1,1.0,440.7921447753906,440.7921447753906,0.0,444.787109375,444.787109375,0.0,443.79620361328125,443.79620361328125,0.0,1.0,1.0,0.0,'1',0.605464518070221,0.605464518070221,0.0,106.0
Anger,stimuli/21M_AN_O.BMP,stimuli/21M_AN_O.BMP,stimuli/33M_AN_O.BMP,stimuli/EmptyFrame.bmp,stimuli/RedFrame.bmp,1,Anger,Male,3,1,1.0,444.812744140625,444.812744140625,0.0,448.8034362792969,448.8034362792969,0.0,447.8179626464844,447.8179626464844,0.0,1.0,1.0,0.0,'1',0.561261773109436,0.561261773109436,0.0,107.0
Anger,stimuli/07F_AN_O.BMP,stimuli/07F_AN_O.BMP,stimuli/14F_AN_O.BMP,stimuli/EmptyFrame.bmp,stimuli/RedFrame.bmp,1,Anger,Female,3,1,1.0,448.83056640625,448.83056640625,0.0,452.82269287109375,452.82269287109375,0.0,451.8262939453125,451.8262939453125,0.0,1.0,1.0,0.0,'1',0.5480794906616211,0.5480794906616211,0.0,108.0
Anger,stimuli/10F_AN_O.BMP,stimuli/10F_AN_O.BMP,stimuli/11F_AN_O.BMP,stimuli/EmptyFrame.bmp,stimuli/RedFrame.bmp,1,Anger,Female,3,1,1.0,452.8478698730469,452.8478698730469,0.0,456.8409118652344,456.8409118652344,0.0,455.8575134277344,455.8575134277344,0.0,1.0,1.0,0.0,'1',0.5011230111122131,0.5011230111122131,0.0,109.0

extraInfo
participant,sub012
session,001
date,2025_Jun_12_0910
expName,HaririTask_Ver2
psychopyVersion,3.0.1
frameRate,None
