TrialType,Top,Left,Right,EmptyFrame,SelectedFrame,Correct,Emotion,Gender,TrialLength,FixationLength,n,GCFaceStartTime_mean,GCFaceStartTime_raw,GCFaceStartTime_std,GCPostFaceFixationEndTime_mean,GCPostFaceFixationEndTime_raw,GCPostFaceFixationEndTime_std,GCPostFaceFixationStartTime_mean,GCPostFaceFixationStartTime_raw,GCPostFaceFixationStartTime_std,key_resp_trial.corr_mean,key_resp_trial.corr_raw,key_resp_trial.corr_std,key_resp_trial.keys_raw,key_resp_trial.rt_mean,key_resp_trial.rt_raw,key_resp_trial.rt_std,order
MatchFaces,stimuli/MatchFaces.bmp,stimuli/EmptyFace.bmp,stimuli/EmptyFace.bmp,stimuli/EmptyFrame.bmp,stimuli/EmptyFrame.bmp,Null,None,None,3,1,1.0,15.250823974609375,15.250823974609375,0.0,19.03270721435547,19.03270721435547,0.0,18.06377410888672,18.06377410888672,0.0,0.0,0.0,0.0,,,,,0.0
Anger,stimuli/01F_AN_O.bmp,stimuli/19F_AN_O.BMP,stimuli/01F_AN_O.bmp,stimuli/EmptyFrame.bmp,stimuli/RedFrame.bmp,2,Anger,Female,3,1,1.0,19.188705444335938,19.188705444335938,0.0,23.04338836669922,23.04338836669922,0.0,22.073957443237305,22.073957443237305,0.0,1.0,1.0,0.0,'2',1.2596256732940674,1.2596256732940674,0.0,1.0
Anger,stimuli/02f_an_o.bmp,stimuli/18F_AN_O.BMP,stimuli/02f_an_o.bmp,stimuli/EmptyFrame.bmp,stimuli/RedFrame.bmp,2,Anger,Female,3,1,1.0,23.08177947998047,23.08177947998047,0.0,27.054553985595703,27.054553985595703,0.0,26.06967544555664,26.06967544555664,0.0,1.0,1.0,0.0,'2',0.9329031109809875,0.9329031109809875,0.0,2.0
Anger,stimuli/20M_AN_O.BMP,stimuli/34M_AN_O.BMP,stimuli/20M_AN_O.BMP,stimuli/EmptyFrame.bmp,stimuli/RedFrame.bmp,2,Anger,Male,3,1,1.0,27.0887508392334,27.0887508392334,0.0,31.054397583007812,31.054397583007812,0.0,30.09099578857422,30.09099578857422,0.0,1.0,1.0,0.0,'2',0.9248670935630798,0.9248670935630798,0.0,3.0
Anger,stimuli/03F_AN_O.bmp,stimuli/03F_AN_O.bmp,stimuli/17F_AN_O.BMP,stimuli/EmptyFrame.bmp,stimuli/RedFrame.bmp,1,Anger,Female,3,1,1.0,31.087697982788086,31.087697982788086,0.0,35.05656433105469,35.05656433105469,0.0,34.08991622924805,34.08991622924805,0.0,1.0,1.0,0.0,'1',1.0424636602401733,1.0424636602401733,0.0,4.0
Anger,stimuli/21M_AN_O.BMP,stimuli/21M_AN_O.BMP,stimuli/33M_AN_O.BMP,stimuli/EmptyFrame.bmp,stimuli/RedFrame.bmp,1,Anger,Male,3,1,1.0,35.09031295776367,35.09031295776367,0.0,39.054115295410156,39.054115295410156,0.0,38.08781433105469,38.08781433105469,0.0,1.0,1.0,0.0,'1',0.8561769127845764,0.8561769127845764,0.0,5.0
Anger,stimuli/22M_AN_O.BMP,stimuli/32M_AN_O.BMP,stimuli/22M_AN_O.BMP,stimuli/EmptyFrame.bmp,stimuli/RedFrame.bmp,2,Anger,Male,3,1,1.0,39.08472442626953,39.08472442626953,0.0,43.05443572998047,43.05443572998047,0.0,42.085472106933594,42.085472106933594,0.0,1.0,1.0,0.0,'2',1.0107581615447998,1.0107581615447998,0.0,6.0
Anger,stimuli/23M_AN_O.BMP,stimuli/23M_AN_O.BMP,stimuli/31M_AN_O.BMP,stimuli/EmptyFrame.bmp,stimuli/RedFrame.bmp,1,Anger,Male,3,1,1.0,43.086978912353516,43.086978912353516,0.0,47.05388641357422,47.05388641357422,0.0,46.08639144897461,46.08639144897461,0.0,1.0,1.0,0.0,'1',0.9921140074729919,0.9921140074729919,0.0,7.0
Anger,stimuli/05F_AN_O.bmp,stimuli/05F_AN_O.bmp,stimuli/16F_AN_O.BMP,stimuli/EmptyFrame.bmp,stimuli/RedFrame.bmp,1,Anger,Female,3,1,1.0,47.088714599609375,47.088714599609375,0.0,51.05337905883789,51.05337905883789,0.0,50.083404541015625,50.083404541015625,0.0,1.0,1.0,0.0,'1',0.9064416289329529,0.9064416289329529,0.0,8.0
Anger,stimuli/06F_AN_O.bmp,stimuli/15F_AN_O.BMP,stimuli/06F_AN_O.bmp,stimuli/EmptyFrame.bmp,stimuli/RedFrame.bmp,2,Anger,Female,3,1,1.0,51.08919143676758,51.08919143676758,0.0,55.05021667480469,55.05021667480469,0.0,54.08523941040039,54.08523941040039,0.0,1.0,1.0,0.0,'2',1.005715012550354,1.005715012550354,0.0,9.0
Anger,stimuli/24M_AN_O.BMP,stimuli/24M_AN_O.BMP,stimuli/30M_AN_O.BMP,stimuli/EmptyFrame.bmp,stimuli/RedFrame.bmp,1,Anger,Male,3,1,1.0,55.08781051635742,55.08781051635742,0.0,59.05142593383789,59.05142593383789,0.0,58.08688735961914,58.08688735961914,0.0,1.0,1.0,0.0,'1',1.2743669748306274,1.2743669748306274,0.0,10.0
MatchShape,stimuli/MatchShapes.bmp,stimuli/EmptyFace.bmp,stimuli/EmptyFace.bmp,stimuli/EmptyFrame.bmp,stimuli/EmptyFrame.bmp,Null,None,None,3,1,1.0,59.082210540771484,59.082210540771484,0.0,63.043643951416016,63.043643951416016,0.0,62.07646942138672,62.07646942138672,0.0,0.0,0.0,0.0,,,,,11.0
Shape,stimuli/horizontal.bmp,stimuli/horizontal.bmp,stimuli/circle.bmp,stimuli/EmptyFrame.bmp,stimuli/RedFrame.bmp,1,Shape,None,3,1,1.0,63.08539962768555,63.08539962768555,0.0,67.05199432373047,67.05199432373047,0.0,66.08423614501953,66.08423614501953,0.0,1.0,1.0,0.0,'1',0.7756621241569519,0.7756621241569519,0.0,12.0
Shape,stimuli/vertical.bmp,stimuli/horizontal.bmp,stimuli/vertical.bmp,stimuli/EmptyFrame.bmp,stimuli/RedFrame.bmp,2,Shape,None,3,1,1.0,67.08206176757812,67.08206176757812,0.0,71.0540771484375,71.0540771484375,0.0,70.0848159790039,70.0848159790039,0.0,1.0,1.0,0.0,'2',1.145186424255371,1.145186424255371,0.0,13.0
Shape,stimuli/horizontal.bmp,stimuli/horizontal.bmp,stimuli/vertical.bmp,stimuli/EmptyFrame.bmp,stimuli/RedFrame.bmp,1,Shape,None,3,1,1.0,71.07933044433594,71.07933044433594,0.0,75.05052947998047,75.05052947998047,0.0,74.08576965332031,74.08576965332031,0.0,1.0,1.0,0.0,'1',0.7644757032394409,0.7644757032394409,0.0,14.0
Shape,stimuli/horizontal.bmp,stimuli/circle.bmp,stimuli/horizontal.bmp,stimuli/EmptyFrame.bmp,stimuli/RedFrame.bmp,2,Shape,None,3,1,1.0,75.07691192626953,75.07691192626953,0.0,79.05123138427734,79.05123138427734,0.0,78.08484649658203,78.08484649658203,0.0,1.0,1.0,0.0,'2',0.8157232999801636,0.8157232999801636,0.0,15.0
Shape,stimuli/circle.bmp,stimuli/circle.bmp,stimuli/vertical.bmp,stimuli/EmptyFrame.bmp,stimuli/RedFrame.bmp,1,Shape,None,3,1,1.0,79.07877349853516,79.07877349853516,0.0,83.05168914794922,83.05168914794922,0.0,82.08332061767578,82.08332061767578,0.0,1.0,1.0,0.0,'1',0.9469735026359558,0.9469735026359558,0.0,16.0
Shape,stimuli/circle.bmp,stimuli/circle.bmp,stimuli/horizontal.bmp,stimuli/EmptyFrame.bmp,stimuli/RedFrame.bmp,1,Shape,None,3,1,1.0,83.07991790771484,83.07991790771484,0.0,87.05186462402344,87.05186462402344,0.0,86.08338165283203,86.08338165283203,0.0,1.0,1.0,0.0,'1',0.7957037091255188,0.7957037091255188,0.0,17.0
Shape,stimuli/vertical.bmp,stimuli/circle.bmp,stimuli/vertical.bmp,stimuli/EmptyFrame.bmp,stimuli/RedFrame.bmp,2,Shape,None,3,1,1.0,87.07613372802734,87.07613372802734,0.0,91.06774139404297,91.06774139404297,0.0,90.08596801757812,90.08596801757812,0.0,1.0,1.0,0.0,'2',0.8153027296066284,0.8153027296066284,0.0,18.0
Shape,stimuli/circle.bmp,stimuli/vertical.bmp,stimuli/circle.bmp,stimuli/EmptyFrame.bmp,stimuli/RedFrame.bmp,2,Shape,None,3,1,1.0,91.09387969970703,91.09387969970703,0.0,95.06868743896484,95.06868743896484,0.0,94.09899139404297,94.09899139404297,0.0,1.0,1.0,0.0,'2',1.2305750846862793,1.2305750846862793,0.0,19.0
Shape,stimuli/vertical.bmp,stimuli/horizontal.bmp,stimuli/vertical.bmp,stimuli/EmptyFrame.bmp,stimuli/RedFrame.bmp,2,Shape,None,3,1,1.0,95.093017578125,95.093017578125,0.0,99.06685638427734,99.06685638427734,0.0,98.10041046142578,98.10041046142578,0.0,1.0,1.0,0.0,'2',0.8644911050796509,0.8644911050796509,0.0,20.0
Shape,stimuli/vertical.bmp,stimuli/vertical.bmp,stimuli/circle.bmp,stimuli/EmptyFrame.bmp,stimuli/RedFrame.bmp,1,Shape,None,3,1,1.0,99.092041015625,99.092041015625,0.0,103.07192993164062,103.07192993164062,0.0,102.0992202758789,102.0992202758789,0.0,1.0,1.0,0.0,'1',0.6672180891036987,0.6672180891036987,0.0,21.0
MatchFaces,stimuli/MatchFaces.bmp,stimuli/EmptyFace.bmp,stimuli/EmptyFace.bmp,stimuli/EmptyFrame.bmp,stimuli/EmptyFrame.bmp,Null,None,None,3,1,1.0,103.20429229736328,103.20429229736328,0.0,107.0732421875,107.0732421875,0.0,106.08887481689453,106.08887481689453,0.0,0.0,0.0,0.0,,,,,22.0
Neutral,stimuli/20M_NE_C.BMP,stimuli/21M_NE_C.BMP,stimuli/20M_NE_C.BMP,stimuli/EmptyFrame.bmp,stimuli/RedFrame.bmp,2,Neutral,Male,3,1,1.0,107.1365737915039,107.1365737915039,0.0,111.07958984375,111.07958984375,0.0,110.12702178955078,110.12702178955078,0.0,1.0,1.0,0.0,'2',2.203209400177002,2.203209400177002,0.0,23.0
Neutral,stimuli/01F_NE_C.bmp,stimuli/01F_NE_C.bmp,stimuli/02F_NE_C.bmp,stimuli/EmptyFrame.bmp,stimuli/RedFrame.bmp,1,Neutral,Female,3,1,1.0,111.11526489257812,111.11526489257812,0.0,115.09664154052734,115.09664154052734,0.0,114.11470794677734,114.11470794677734,0.0,1.0,1.0,0.0,'1',0.6999800205230713,0.6999800205230713,0.0,24.0
Neutral,stimuli/22M_NE_C.BMP,stimuli/23M_NE_C.BMP,stimuli/22M_NE_C.BMP,stimuli/EmptyFrame.bmp,stimuli/RedFrame.bmp,2,Neutral,Male,3,1,1.0,115.1314926147461,115.1314926147461,0.0,119.09525299072266,119.09525299072266,0.0,118.14573669433594,118.14573669433594,0.0,1.0,1.0,0.0,'2',0.835808515548706,0.835808515548706,0.0,25.0
Neutral,stimuli/24M_NE_C.BMP,stimuli/24M_NE_C.BMP,stimuli/25M_NE_C.BMP,stimuli/EmptyFrame.bmp,stimuli/RedFrame.bmp,1,Neutral,Male,3,1,1.0,119.1339340209961,119.1339340209961,0.0,123.0953369140625,123.0953369140625,0.0,122.14530181884766,122.14530181884766,0.0,1.0,1.0,0.0,'1',0.9212682247161865,0.9212682247161865,0.0,26.0
Neutral,stimuli/03F_NE_C.bmp,stimuli/05F_NE_C.bmp,stimuli/03F_NE_C.bmp,stimuli/EmptyFrame.bmp,stimuli/RedFrame.bmp,2,Neutral,Female,3,1,1.0,123.12788391113281,123.12788391113281,0.0,127.09566497802734,127.09566497802734,0.0,126.14273834228516,126.14273834228516,0.0,1.0,1.0,0.0,'2',0.9278755187988281,0.9278755187988281,0.0,27.0
Neutral,stimuli/26M_NE_C.BMP,stimuli/26M_NE_C.BMP,stimuli/27M_NE_C.BMP,stimuli/EmptyFrame.bmp,stimuli/RedFrame.bmp,1,Neutral,Male,3,1,1.0,127.13126373291016,127.13126373291016,0.0,131.0935516357422,131.0935516357422,0.0,130.14492797851562,130.14492797851562,0.0,1.0,1.0,0.0,'1',0.7583045959472656,0.7583045959472656,0.0,28.0
Neutral,stimuli/06F_NE_C.bmp,stimuli/07F_NE_C.BMP,stimuli/06F_NE_C.bmp,stimuli/EmptyFrame.bmp,stimuli/RedFrame.bmp,2,Neutral,Female,3,1,1.0,131.1274871826172,131.1274871826172,0.0,135.10879516601562,135.10879516601562,0.0,134.129150390625,134.129150390625,0.0,1.0,1.0,0.0,'2',0.8277168869972229,0.8277168869972229,0.0,29.0
Neutral,stimuli/08F_NE_C.BMP,stimuli/08F_NE_C.BMP,stimuli/09F_NE_C.BMP,stimuli/EmptyFrame.bmp,stimuli/RedFrame.bmp,1,Neutral,Female,3,1,1.0,135.1414337158203,135.1414337158203,0.0,139.12782287597656,139.12782287597656,0.0,138.1445770263672,138.1445770263672,0.0,1.0,1.0,0.0,'1',0.6639416217803955,0.6639416217803955,0.0,30.0
Neutral,stimuli/28M_NE_C.BMP,stimuli/29M_NE_C.BMP,stimuli/28M_NE_C.BMP,stimuli/EmptyFrame.bmp,stimuli/RedFrame.bmp,2,Neutral,Male,3,1,1.0,139.16171264648438,139.16171264648438,0.0,143.13650512695312,143.13650512695312,0.0,142.17910766601562,142.17910766601562,0.0,1.0,1.0,0.0,'2',1.0265802145004272,1.0265802145004272,0.0,31.0
Neutral,stimuli/10F_NE_C.BMP,stimuli/10F_NE_C.BMP,stimuli/06F_NE_C.bmp,stimuli/EmptyFrame.bmp,stimuli/RedFrame.bmp,1,Neutral,Female,3,1,1.0,143.1710205078125,143.1710205078125,0.0,147.160888671875,147.160888671875,0.0,146.18092346191406,146.18092346191406,0.0,1.0,1.0,0.0,'1',0.8006058931350708,0.8006058931350708,0.0,32.0
MatchFaces,stimuli/MatchFaces.bmp,stimuli/EmptyFace.bmp,stimuli/EmptyFace.bmp,stimuli/EmptyFrame.bmp,stimuli/EmptyFrame.bmp,Null,None,None,3,1,1.0,147.2928466796875,147.2928466796875,0.0,151.15414428710938,151.15414428710938,0.0,150.18519592285156,150.18519592285156,0.0,0.0,0.0,0.0,,,,,33.0
Fear,stimuli/07F_FE_O.BMP,stimuli/07F_FE_O.BMP,stimuli/14F_FE_O.BMP,stimuli/EmptyFrame.bmp,stimuli/RedFrame.bmp,1,Fear,Female,3,1,1.0,151.2095184326172,151.2095184326172,0.0,155.16238403320312,155.16238403320312,0.0,154.2100067138672,154.2100067138672,0.0,1.0,1.0,0.0,'1',0.9775301814079285,0.9775301814079285,0.0,34.0
Fear,stimuli/25M_FE_O.BMP,stimuli/29M_FE_O.BMP,stimuli/25M_FE_O.BMP,stimuli/EmptyFrame.bmp,stimuli/RedFrame.bmp,2,Fear,Male,3,1,1.0,155.195556640625,155.195556640625,0.0,159.15814208984375,159.15814208984375,0.0,158.20941162109375,158.20941162109375,0.0,1.0,1.0,0.0,'2',1.0259772539138794,1.0259772539138794,0.0,35.0
Fear,stimuli/26M_FE_O.BMP,stimuli/26M_FE_O.BMP,stimuli/28M_FE_O.BMP,stimuli/EmptyFrame.bmp,stimuli/RedFrame.bmp,1,Fear,Male,3,1,1.0,159.20220947265625,159.20220947265625,0.0,163.1566619873047,163.1566619873047,0.0,162.2084503173828,162.2084503173828,0.0,1.0,1.0,0.0,'1',0.7179378271102905,0.7179378271102905,0.0,36.0
Fear,stimuli/08F_FE_O.BMP,stimuli/13F_FE_O.BMP,stimuli/08F_FE_O.BMP,stimuli/EmptyFrame.bmp,stimuli/RedFrame.bmp,2,Fear,Female,3,1,1.0,163.19143676757812,163.19143676757812,0.0,167.16119384765625,167.16119384765625,0.0,166.19091796875,166.19091796875,0.0,1.0,1.0,0.0,'2',1.1463563442230225,1.1463563442230225,0.0,37.0
Fear,stimuli/09F_FE_O.BMP,stimuli/09F_FE_O.BMP,stimuli/12F_FE_O.BMP,stimuli/EmptyFrame.bmp,stimuli/RedFrame.bmp,1,Fear,Female,3,1,1.0,167.19955444335938,167.19955444335938,0.0,171.17298889160156,171.17298889160156,0.0,170.1942596435547,170.1942596435547,0.0,1.0,1.0,0.0,'1',0.8526440858840942,0.8526440858840942,0.0,38.0
Fear,stimuli/27M_FE_O.BMP,stimuli/26M_FE_O.BMP,stimuli/27M_FE_O.BMP,stimuli/EmptyFrame.bmp,stimuli/RedFrame.bmp,2,Fear,Male,3,1,1.0,171.20388793945312,171.20388793945312,0.0,175.17457580566406,175.17457580566406,0.0,174.2298583984375,174.2298583984375,0.0,1.0,1.0,0.0,'2',0.8625984191894531,0.8625984191894531,0.0,39.0
Fear,stimuli/28M_FE_O.BMP,stimuli/28M_FE_O.BMP,stimuli/25M_FE_O.BMP,stimuli/EmptyFrame.bmp,stimuli/RedFrame.bmp,1,Fear,Male,3,1,1.0,175.2012481689453,175.2012481689453,0.0,179.1766815185547,179.1766815185547,0.0,178.209716796875,178.209716796875,0.0,1.0,1.0,0.0,'1',0.7833048105239868,0.7833048105239868,0.0,40.0
Fear,stimuli/10F_FE_O.BMP,stimuli/11F_FE_O.BMP,stimuli/10F_FE_O.BMP,stimuli/EmptyFrame.bmp,stimuli/RedFrame.bmp,2,Fear,Female,3,1,1.0,179.20823669433594,179.20823669433594,0.0,183.17422485351562,183.17422485351562,0.0,182.21263122558594,182.21263122558594,0.0,1.0,1.0,0.0,'2',0.6106836795806885,0.6106836795806885,0.0,41.0
Fear,stimuli/29M_FE_O.BMP,stimuli/29M_FE_O.BMP,stimuli/24M_FE_O.BMP,stimuli/EmptyFrame.bmp,stimuli/RedFrame.bmp,1,Fear,Male,3,1,1.0,183.20504760742188,183.20504760742188,0.0,187.1754913330078,187.1754913330078,0.0,186.20755004882812,186.20755004882812,0.0,1.0,1.0,0.0,'1',0.578377902507782,0.578377902507782,0.0,42.0
Fear,stimuli/11F_FE_O.BMP,stimuli/10F_FE_O.BMP,stimuli/11F_FE_O.BMP,stimuli/EmptyFrame.bmp,stimuli/RedFrame.bmp,2,Fear,Female,3,1,1.0,187.20335388183594,187.20335388183594,0.0,191.1746826171875,191.1746826171875,0.0,190.20730590820312,190.20730590820312,0.0,1.0,1.0,0.0,'2',0.6953107118606567,0.6953107118606567,0.0,43.0
MatchFaces,stimuli/MatchFaces.bmp,stimuli/EmptyFace.bmp,stimuli/EmptyFace.bmp,stimuli/EmptyFrame.bmp,stimuli/EmptyFrame.bmp,Null,None,None,3,1,1.0,191.3152618408203,191.3152618408203,0.0,195.16493225097656,195.16493225097656,0.0,194.1982879638672,194.1982879638672,0.0,0.0,0.0,0.0,,,,,44.0
Happy,stimuli/19F_HA_O.BMP,stimuli/19F_HA_O.BMP,stimuli/18F_HA_O.BMP,stimuli/EmptyFrame.bmp,stimuli/RedFrame.bmp,1,Happy,Female,3,1,1.0,195.2212371826172,195.2212371826172,0.0,199.17343139648438,199.17343139648438,0.0,198.2076873779297,198.2076873779297,0.0,1.0,1.0,0.0,'1',0.7608025074005127,0.7608025074005127,0.0,45.0
Happy,stimuli/17F_HA_O.BMP,stimuli/16F_HA_O.BMP,stimuli/17F_HA_O.BMP,stimuli/EmptyFrame.bmp,stimuli/RedFrame.bmp,2,Happy,Female,3,1,1.0,199.2039794921875,199.2039794921875,0.0,203.17428588867188,203.17428588867188,0.0,202.20643615722656,202.20643615722656,0.0,0.0,0.0,0.0,'1',0.8115065097808838,0.8115065097808838,0.0,46.0
Happy,stimuli/43M_HA_O.BMP,stimuli/42M_HA_O.BMP,stimuli/43M_HA_O.BMP,stimuli/EmptyFrame.bmp,stimuli/RedFrame.bmp,2,Happy,Male,3,1,1.0,203.2061004638672,203.2061004638672,0.0,207.16969299316406,207.16969299316406,0.0,206.2086639404297,206.2086639404297,0.0,1.0,1.0,0.0,'2',0.692774772644043,0.692774772644043,0.0,47.0
Happy,stimuli/41M_HA_O.BMP,stimuli/41M_HA_O.BMP,stimuli/40M_HA_O.BMP,stimuli/EmptyFrame.bmp,stimuli/RedFrame.bmp,1,Happy,Male,3,1,1.0,207.20506286621094,207.20506286621094,0.0,211.1704864501953,211.1704864501953,0.0,210.2042694091797,210.2042694091797,0.0,1.0,1.0,0.0,'1',0.7934405207633972,0.7934405207633972,0.0,48.0
Happy,stimuli/15F_HA_O.BMP,stimuli/15F_HA_O.BMP,stimuli/14F_HA_O.BMP,stimuli/EmptyFrame.bmp,stimuli/RedFrame.bmp,1,Happy,Female,3,1,1.0,211.20330810546875,211.20330810546875,0.0,215.1717987060547,215.1717987060547,0.0,214.20420837402344,214.20420837402344,0.0,1.0,1.0,0.0,'1',0.7786074280738831,0.7786074280738831,0.0,49.0
Happy,stimuli/13F_HA_O.BMP,stimuli/13F_HA_O.BMP,stimuli/12F_HA_O.BMP,stimuli/EmptyFrame.bmp,stimuli/RedFrame.bmp,1,Happy,Female,3,1,1.0,215.2017822265625,215.2017822265625,0.0,219.17112731933594,219.17112731933594,0.0,218.2042694091797,218.2042694091797,0.0,1.0,1.0,0.0,'1',0.6453337073326111,0.6453337073326111,0.0,50.0
Happy,stimuli/39M_HA_O.BMP,stimuli/38M_HA_O.BMP,stimuli/39M_HA_O.BMP,stimuli/EmptyFrame.bmp,stimuli/RedFrame.bmp,2,Happy,Male,3,1,1.0,219.20326232910156,219.20326232910156,0.0,223.1695098876953,223.1695098876953,0.0,222.2043914794922,222.2043914794922,0.0,1.0,1.0,0.0,'2',0.7438765168190002,0.7438765168190002,0.0,51.0
Happy,stimuli/37M_HA_O.BMP,stimuli/37M_HA_O.BMP,stimuli/36M_HA_O.BMP,stimuli/EmptyFrame.bmp,stimuli/RedFrame.bmp,1,Happy,Male,3,1,1.0,223.20277404785156,223.20277404785156,0.0,227.17034912109375,227.17034912109375,0.0,226.20419311523438,226.20419311523438,0.0,1.0,1.0,0.0,'1',0.8271186947822571,0.8271186947822571,0.0,52.0
Happy,stimuli/35M_HA_O.BMP,stimuli/34M_HA_O.BMP,stimuli/35M_HA_O.BMP,stimuli/EmptyFrame.bmp,stimuli/RedFrame.bmp,2,Happy,Male,3,1,1.0,227.2025909423828,227.2025909423828,0.0,231.1709442138672,231.1709442138672,0.0,230.20326232910156,230.20326232910156,0.0,1.0,1.0,0.0,'2',0.6773838996887207,0.6773838996887207,0.0,53.0
Happy,stimuli/11F_HA_O.BMP,stimuli/10F_HA_O.BMP,stimuli/11F_HA_O.BMP,stimuli/EmptyFrame.bmp,stimuli/RedFrame.bmp,2,Happy,Female,3,1,1.0,231.20223999023438,231.20223999023438,0.0,235.17005920410156,235.17005920410156,0.0,234.20498657226562,234.20498657226562,0.0,1.0,1.0,0.0,'2',0.6442973017692566,0.6442973017692566,0.0,54.0
Match Shape,stimuli/MatchShapes.bmp,stimuli/EmptyFace.bmp,stimuli/EmptyFace.bmp,stimuli/EmptyFrame.bmp,stimuli/EmptyFrame.bmp,Null,None,None,3,1,1.0,235.1976318359375,235.1976318359375,0.0,239.16136169433594,239.16136169433594,0.0,238.194091796875,238.194091796875,0.0,0.0,0.0,0.0,,,,,55.0
Shape,stimuli/circle.bmp,stimuli/vertical.bmp,stimuli/circle.bmp,stimuli/EmptyFrame.bmp,stimuli/RedFrame.bmp,2,Shape,None,3,1,1.0,239.1947021484375,239.1947021484375,0.0,243.1707000732422,243.1707000732422,0.0,242.18800354003906,242.18800354003906,0.0,1.0,1.0,0.0,'2',0.7508339881896973,0.7508339881896973,0.0,56.0
Shape,stimuli/horizontal.bmp,stimuli/circle.bmp,stimuli/horizontal.bmp,stimuli/EmptyFrame.bmp,stimuli/RedFrame.bmp,2,Shape,None,3,1,1.0,243.19732666015625,243.19732666015625,0.0,247.1702423095703,247.1702423095703,0.0,246.1986846923828,246.1986846923828,0.0,1.0,1.0,0.0,'2',0.6300830245018005,0.6300830245018005,0.0,57.0
Shape,stimuli/vertical.bmp,stimuli/vertical.bmp,stimuli/horizontal.bmp,stimuli/EmptyFrame.bmp,stimuli/RedFrame.bmp,1,Shape,None,3,1,1.0,247.19662475585938,247.19662475585938,0.0,251.1702423095703,251.1702423095703,0.0,250.20310974121094,250.20310974121094,0.0,1.0,1.0,0.0,'1',1.1812083721160889,1.1812083721160889,0.0,58.0
Shape,stimuli/horizontal.bmp,stimuli/circle.bmp,stimuli/horizontal.bmp,stimuli/EmptyFrame.bmp,stimuli/RedFrame.bmp,2,Shape,None,3,1,1.0,251.19464111328125,251.19464111328125,0.0,255.16943359375,255.16943359375,0.0,254.2025604248047,254.2025604248047,0.0,1.0,1.0,0.0,'2',0.6176571846008301,0.6176571846008301,0.0,59.0
Shape,stimuli/horizontal.bmp,stimuli/horizontal.bmp,stimuli/vertical.bmp,stimuli/EmptyFrame.bmp,stimuli/RedFrame.bmp,1,Shape,None,3,1,1.0,255.19517517089844,255.19517517089844,0.0,259.1670837402344,259.1670837402344,0.0,258.20135498046875,258.20135498046875,0.0,1.0,1.0,0.0,'1',1.0822988748550415,1.0822988748550415,0.0,60.0
Shape,stimuli/vertical.bmp,stimuli/vertical.bmp,stimuli/circle.bmp,stimuli/EmptyFrame.bmp,stimuli/RedFrame.bmp,1,Shape,None,3,1,1.0,259.1921081542969,259.1921081542969,0.0,263.1697998046875,263.1697998046875,0.0,262.2015075683594,262.2015075683594,0.0,1.0,1.0,0.0,'1',0.801217794418335,0.801217794418335,0.0,61.0
Shape,stimuli/circle.bmp,stimuli/horizontal.bmp,stimuli/circle.bmp,stimuli/EmptyFrame.bmp,stimuli/RedFrame.bmp,2,Shape,None,3,1,1.0,263.19561767578125,263.19561767578125,0.0,267.1678771972656,267.1678771972656,0.0,266.202392578125,266.202392578125,0.0,1.0,1.0,0.0,'2',0.9480220079421997,0.9480220079421997,0.0,62.0
Shape,stimuli/circle.bmp,stimuli/vertical.bmp,stimuli/circle.bmp,stimuli/EmptyFrame.bmp,stimuli/RedFrame.bmp,2,Shape,None,3,1,1.0,267.193115234375,267.193115234375,0.0,271.1665344238281,271.1665344238281,0.0,270.1983947753906,270.1983947753906,0.0,1.0,1.0,0.0,'2',1.0835609436035156,1.0835609436035156,0.0,63.0
Shape,stimuli/vertical.bmp,stimuli/vertical.bmp,stimuli/horizontal.bmp,stimuli/EmptyFrame.bmp,stimuli/RedFrame.bmp,1,Shape,None,3,1,1.0,271.19287109375,271.19287109375,0.0,275.1673583984375,275.1673583984375,0.0,274.201171875,274.201171875,0.0,1.0,1.0,0.0,'1',0.7336038947105408,0.7336038947105408,0.0,64.0
Shape,stimuli/horizontal.bmp,stimuli/horizontal.bmp,stimuli/circle.bmp,stimuli/EmptyFrame.bmp,stimuli/RedFrame.bmp,1,Shape,None,3,1,1.0,275.19268798828125,275.19268798828125,0.0,279.17059326171875,279.17059326171875,0.0,278.217529296875,278.217529296875,0.0,1.0,1.0,0.0,'1',1.0320018529891968,1.0320018529891968,0.0,65.0
MatchFaces,stimuli/MatchFaces.bmp,stimuli/EmptyFace.bmp,stimuli/EmptyFace.bmp,stimuli/EmptyFrame.bmp,stimuli/EmptyFrame.bmp,Null,None,None,3,1,1.0,279.3060607910156,279.3060607910156,0.0,283.1744689941406,283.1744689941406,0.0,282.1905212402344,282.1905212402344,0.0,0.0,0.0,0.0,,,,,66.0
Anger,stimuli/42M_AN_O.BMP,stimuli/42M_AN_O.BMP,stimuli/43M_AN_O.BMP,stimuli/EmptyFrame.bmp,stimuli/RedFrame.bmp,1,Anger,Male,3,1,1.0,283.2337341308594,283.2337341308594,0.0,287.1802062988281,287.1802062988281,0.0,286.21453857421875,286.21453857421875,0.0,1.0,1.0,0.0,'1',0.940892219543457,0.940892219543457,0.0,67.0
Anger,stimuli/07F_AN_O.BMP,stimuli/07F_AN_O.BMP,stimuli/14F_AN_O.BMP,stimuli/EmptyFrame.bmp,stimuli/RedFrame.bmp,1,Anger,Female,3,1,1.0,287.2183532714844,287.2183532714844,0.0,291.18292236328125,291.18292236328125,0.0,290.2147216796875,290.2147216796875,0.0,1.0,1.0,0.0,'1',0.8724676966667175,0.8724676966667175,0.0,68.0
Anger,stimuli/40M_AN_O.BMP,stimuli/41M_AN_O.BMP,stimuli/40M_AN_O.BMP,stimuli/EmptyFrame.bmp,stimuli/RedFrame.bmp,2,Anger,Male,3,1,1.0,291.2168884277344,291.2168884277344,0.0,295.1831359863281,295.1831359863281,0.0,294.2120666503906,294.2120666503906,0.0,1.0,1.0,0.0,'2',0.9232105016708374,0.9232105016708374,0.0,69.0
Anger,stimuli/38M_AN_O.BMP,stimuli/39M_AN_O.BMP,stimuli/38M_AN_O.BMP,stimuli/EmptyFrame.bmp,stimuli/RedFrame.bmp,2,Anger,Male,3,1,1.0,295.21380615234375,295.21380615234375,0.0,299.1827392578125,299.1827392578125,0.0,298.21728515625,298.21728515625,0.0,1.0,1.0,0.0,'2',1.560366153717041,1.560366153717041,0.0,70.0
Anger,stimuli/08F_AN_O.BMP,stimuli/08F_AN_O.BMP,stimuli/13F_AN_O.BMP,stimuli/EmptyFrame.bmp,stimuli/RedFrame.bmp,1,Anger,Female,3,1,1.0,299.2148742675781,299.2148742675781,0.0,303.1822814941406,303.1822814941406,0.0,302.2142333984375,302.2142333984375,0.0,1.0,1.0,0.0,'1',1.441224217414856,1.441224217414856,0.0,71.0
Anger,stimuli/36M_AN_O.BMP,stimuli/37M_AN_O.BMP,stimuli/36M_AN_O.BMP,stimuli/EmptyFrame.bmp,stimuli/RedFrame.bmp,2,Anger,Male,3,1,1.0,303.21337890625,303.21337890625,0.0,307.18389892578125,307.18389892578125,0.0,306.2314147949219,306.2314147949219,0.0,1.0,1.0,0.0,'2',0.9254865050315857,0.9254865050315857,0.0,72.0
Anger,stimuli/09F_AN_O.BMP,stimuli/12F_AN_O.BMP,stimuli/09F_AN_O.BMP,stimuli/EmptyFrame.bmp,stimuli/RedFrame.bmp,2,Anger,Female,3,1,1.0,307.2193908691406,307.2193908691406,0.0,311.19403076171875,311.19403076171875,0.0,310.2117919921875,310.2117919921875,0.0,1.0,1.0,0.0,'2',0.8364031910896301,0.8364031910896301,0.0,73.0
Anger,stimuli/34M_AN_O.BMP,stimuli/35M_AN_O.BMP,stimuli/34M_AN_O.BMP,stimuli/EmptyFrame.bmp,stimuli/RedFrame.bmp,2,Anger,Male,3,1,1.0,311.2269287109375,311.2269287109375,0.0,315.1950988769531,315.1950988769531,0.0,314.24310302734375,314.24310302734375,0.0,1.0,1.0,0.0,'2',0.9129562973976135,0.9129562973976135,0.0,74.0
Anger,stimuli/10F_AN_O.BMP,stimuli/10F_AN_O.BMP,stimuli/11F_AN_O.BMP,stimuli/EmptyFrame.bmp,stimuli/RedFrame.bmp,1,Anger,Female,3,1,1.0,315.22857666015625,315.22857666015625,0.0,319.19317626953125,319.19317626953125,0.0,318.2450866699219,318.2450866699219,0.0,1.0,1.0,0.0,'1',0.787671685218811,0.787671685218811,0.0,75.0
Anger,stimuli/12F_AN_O.BMP,stimuli/12F_AN_O.BMP,stimuli/13F_AN_O.BMP,stimuli/EmptyFrame.bmp,stimuli/RedFrame.bmp,1,Anger,Female,3,1,1.0,319.2220764160156,319.2220764160156,0.0,323.195556640625,323.195556640625,0.0,322.2447814941406,322.2447814941406,0.0,1.0,1.0,0.0,'1',0.8662095069885254,0.8662095069885254,0.0,76.0
MatchFaces,stimuli/MatchFaces.bmp,stimuli/EmptyFace.bmp,stimuli/EmptyFace.bmp,stimuli/EmptyFrame.bmp,stimuli/EmptyFrame.bmp,Null,None,None,3,1,1.0,323.3235778808594,323.3235778808594,0.0,327.20379638671875,327.20379638671875,0.0,326.2196044921875,326.2196044921875,0.0,0.0,0.0,0.0,,,,,77.0
Happy,stimuli/20M_HA_O.BMP,stimuli/21M_HA_O.BMP,stimuli/20M_HA_O.BMP,stimuli/EmptyFrame.bmp,stimuli/RedFrame.bmp,2,Happy,Male,3,1,1.0,327.2593994140625,327.2593994140625,0.0,331.2098693847656,331.2098693847656,0.0,330.2588806152344,330.2588806152344,0.0,1.0,1.0,0.0,'2',1.4110761880874634,1.4110761880874634,0.0,78.0
Happy,stimuli/01F_HA_O.bmp,stimuli/01F_HA_O.bmp,stimuli/02F_HA_O.bmp,stimuli/EmptyFrame.bmp,stimuli/RedFrame.bmp,1,Happy,Female,3,1,1.0,331.2499084472656,331.2499084472656,0.0,335.2259216308594,335.2259216308594,0.0,334.2442932128906,334.2442932128906,0.0,1.0,1.0,0.0,'1',0.8481932878494263,0.8481932878494263,0.0,79.0
Happy,stimuli/22M_HA_O.BMP,stimuli/23M_HA_O.BMP,stimuli/22M_HA_O.BMP,stimuli/EmptyFrame.bmp,stimuli/RedFrame.bmp,2,Happy,Male,3,1,1.0,335.2607727050781,335.2607727050781,0.0,339.2267150878906,339.2267150878906,0.0,338.2748107910156,338.2748107910156,0.0,1.0,1.0,0.0,'2',0.7084141969680786,0.7084141969680786,0.0,80.0
Happy,stimuli/24M_HA_O.BMP,stimuli/24M_HA_O.BMP,stimuli/25M_HA_O.BMP,stimuli/EmptyFrame.bmp,stimuli/RedFrame.bmp,1,Happy,Male,3,1,1.0,339.26092529296875,339.26092529296875,0.0,343.2408447265625,343.2408447265625,0.0,342.261962890625,342.261962890625,0.0,1.0,1.0,0.0,'1',0.8096086978912354,0.8096086978912354,0.0,81.0
Happy,stimuli/03F_HA_O.bmp,stimuli/05F_HA_O.bmp,stimuli/03F_HA_O.bmp,stimuli/EmptyFrame.bmp,stimuli/RedFrame.bmp,2,Happy,Female,3,1,1.0,343.2754211425781,343.2754211425781,0.0,347.2422180175781,347.2422180175781,0.0,346.294921875,346.294921875,0.0,1.0,1.0,0.0,'2',0.9615216851234436,0.9615216851234436,0.0,82.0
Happy,stimuli/26M_HA_O.BMP,stimuli/26M_HA_O.BMP,stimuli/27M_HA_O.BMP,stimuli/EmptyFrame.bmp,stimuli/RedFrame.bmp,1,Happy,Male,3,1,1.0,347.2748718261719,347.2748718261719,0.0,351.2586975097656,351.2586975097656,0.0,350.27960205078125,350.27960205078125,0.0,1.0,1.0,0.0,'1',0.8050827980041504,0.8050827980041504,0.0,83.0
Happy,stimuli/06F_HA_O.bmp,stimuli/07F_HA_O.BMP,stimuli/06F_HA_O.bmp,stimuli/EmptyFrame.bmp,stimuli/RedFrame.bmp,2,Happy,Female,3,1,1.0,351.2904357910156,351.2904357910156,0.0,355.2593688964844,355.2593688964844,0.0,354.3102111816406,354.3102111816406,0.0,1.0,1.0,0.0,'2',0.6385648846626282,0.6385648846626282,0.0,84.0
Happy,stimuli/08F_HA_O.BMP,stimuli/08F_HA_O.BMP,stimuli/09F_HA_O.BMP,stimuli/EmptyFrame.bmp,stimuli/RedFrame.bmp,1,Happy,Female,3,1,1.0,355.2954406738281,355.2954406738281,0.0,359.2721862792969,359.2721862792969,0.0,358.29217529296875,358.29217529296875,0.0,0.0,0.0,0.0,'2',0.8401901721954346,0.8401901721954346,0.0,85.0
Happy,stimuli/28M_HA_O.BMP,stimuli/29M_HA_O.BMP,stimuli/28M_HA_O.BMP,stimuli/EmptyFrame.bmp,stimuli/RedFrame.bmp,2,Happy,Male,3,1,1.0,359.30743408203125,359.30743408203125,0.0,363.29461669921875,363.29461669921875,0.0,362.32818603515625,362.32818603515625,0.0,1.0,1.0,0.0,'2',1.037139654159546,1.037139654159546,0.0,86.0
Happy,stimuli/10F_HA_O.BMP,stimuli/10F_HA_O.BMP,stimuli/06F_HA_O.bmp,stimuli/EmptyFrame.bmp,stimuli/RedFrame.bmp,1,Happy,Female,3,1,1.0,363.3201904296875,363.3201904296875,0.0,367.293701171875,367.293701171875,0.0,366.328125,366.328125,0.0,1.0,1.0,0.0,'1',0.7311856746673584,0.7311856746673584,0.0,87.0
MatchFaces,stimuli/MatchFaces.bmp,stimuli/EmptyFace.bmp,stimuli/EmptyFace.bmp,stimuli/EmptyFrame.bmp,stimuli/EmptyFrame.bmp,Null,None,None,3,1,1.0,367.42138671875,367.42138671875,0.0,371.28564453125,371.28564453125,0.0,370.326171875,370.326171875,0.0,0.0,0.0,0.0,,,,,88.0
Neutral,stimuli/07F_NE_C.BMP,stimuli/07F_NE_C.BMP,stimuli/14F_NE_C.BMP,stimuli/EmptyFrame.bmp,stimuli/RedFrame.bmp,1,Neutral,Female,3,1,1.0,371.34429931640625,371.34429931640625,0.0,375.2958984375,375.2958984375,0.0,374.3410949707031,374.3410949707031,0.0,1.0,1.0,0.0,'1',0.8732026219367981,0.8732026219367981,0.0,89.0
Neutral,stimuli/25M_NE_C.BMP,stimuli/29M_NE_C.BMP,stimuli/25M_NE_C.BMP,stimuli/EmptyFrame.bmp,stimuli/RedFrame.bmp,2,Neutral,Male,3,1,1.0,375.3216552734375,375.3216552734375,0.0,379.30859375,379.30859375,0.0,378.3233337402344,378.3233337402344,0.0,1.0,1.0,0.0,'2',0.6945747137069702,0.6945747137069702,0.0,90.0
Neutral,stimuli/26M_NE_C.BMP,stimuli/26M_NE_C.BMP,stimuli/28M_NE_C.BMP,stimuli/EmptyFrame.bmp,stimuli/RedFrame.bmp,1,Neutral,Male,3,1,1.0,379.3348388671875,379.3348388671875,0.0,383.3092956542969,383.3092956542969,0.0,382.34039306640625,382.34039306640625,0.0,1.0,1.0,0.0,'1',0.6809599995613098,0.6809599995613098,0.0,91.0
Neutral,stimuli/08F_NE_C.BMP,stimuli/13F_NE_C.BMP,stimuli/08F_NE_C.BMP,stimuli/EmptyFrame.bmp,stimuli/RedFrame.bmp,2,Neutral,Female,3,1,1.0,383.3406066894531,383.3406066894531,0.0,387.3061218261719,387.3061218261719,0.0,386.33978271484375,386.33978271484375,0.0,1.0,1.0,0.0,'2',0.7085899710655212,0.7085899710655212,0.0,92.0
Neutral,stimuli/09F_NE_C.BMP,stimuli/09F_NE_C.BMP,stimuli/12F_NE_C.BMP,stimuli/EmptyFrame.bmp,stimuli/RedFrame.bmp,1,Neutral,Female,3,1,1.0,387.3402099609375,387.3402099609375,0.0,391.30987548828125,391.30987548828125,0.0,390.3404235839844,390.3404235839844,0.0,1.0,1.0,0.0,'1',0.6764758229255676,0.6764758229255676,0.0,93.0
Neutral,stimuli/27M_NE_C.BMP,stimuli/26M_NE_C.BMP,stimuli/27M_NE_C.BMP,stimuli/EmptyFrame.bmp,stimuli/RedFrame.bmp,2,Neutral,Male,3,1,1.0,391.3382263183594,391.3382263183594,0.0,395.3065490722656,395.3065490722656,0.0,394.3411560058594,394.3411560058594,0.0,1.0,1.0,0.0,'2',0.8475006818771362,0.8475006818771362,0.0,94.0
Neutral,stimuli/28M_NE_C.BMP,stimuli/28M_NE_C.BMP,stimuli/25M_NE_C.BMP,stimuli/EmptyFrame.bmp,stimuli/RedFrame.bmp,1,Neutral,Male,3,1,1.0,395.3328552246094,395.3328552246094,0.0,399.3064880371094,399.3064880371094,0.0,398.369873046875,398.369873046875,0.0,1.0,1.0,0.0,'1',0.8155298829078674,0.8155298829078674,0.0,95.0
Neutral,stimuli/10F_NE_C.BMP,stimuli/11F_NE_C.BMP,stimuli/10F_NE_C.BMP,stimuli/EmptyFrame.bmp,stimuli/RedFrame.bmp,2,Neutral,Female,3,1,1.0,399.3365173339844,399.3365173339844,0.0,403.3139953613281,403.3139953613281,0.0,402.35528564453125,402.35528564453125,0.0,1.0,1.0,0.0,'2',1.0947797298431396,1.0947797298431396,0.0,96.0
Neutral,stimuli/29M_NE_C.BMP,stimuli/29M_NE_C.BMP,stimuli/24M_NE_C.BMP,stimuli/EmptyFrame.bmp,stimuli/RedFrame.bmp,1,Neutral,Male,3,1,1.0,403.3423767089844,403.3423767089844,0.0,407.3221435546875,407.3221435546875,0.0,406.3559875488281,406.3559875488281,0.0,1.0,1.0,0.0,'1',0.8220261931419373,0.8220261931419373,0.0,97.0
Neutral,stimuli/11F_NE_C.BMP,stimuli/10F_NE_C.BMP,stimuli/11F_NE_C.BMP,stimuli/EmptyFrame.bmp,stimuli/RedFrame.bmp,2,Neutral,Female,3,1,1.0,407.34918212890625,407.34918212890625,0.0,411.32012939453125,411.32012939453125,0.0,410.3575744628906,410.3575744628906,0.0,1.0,1.0,0.0,'2',0.899101197719574,0.899101197719574,0.0,98.0
MatchFaces,stimuli/MatchFaces.bmp,stimuli/EmptyFace.bmp,stimuli/EmptyFace.bmp,stimuli/EmptyFrame.bmp,stimuli/EmptyFrame.bmp,Null,None,None,3,1,1.0,411.447021484375,411.447021484375,0.0,415.31201171875,415.31201171875,0.0,414.3450012207031,414.3450012207031,0.0,0.0,0.0,0.0,,,,,99.0
Fear,stimuli/23M_FE_O.BMP,stimuli/23M_FE_O.BMP,stimuli/24M_FE_O.BMP,stimuli/EmptyFrame.bmp,stimuli/RedFrame.bmp,1,Fear,Male,3,1,1.0,415.3664855957031,415.3664855957031,0.0,419.32470703125,419.32470703125,0.0,418.339111328125,418.339111328125,0.0,1.0,1.0,0.0,'1',1.1943904161453247,1.1943904161453247,0.0,100.0
Fear,stimuli/19F_FE_O.BMP,stimuli/18F_FE_O.BMP,stimuli/19F_FE_O.BMP,stimuli/EmptyFrame.bmp,stimuli/RedFrame.bmp,2,Fear,Female,3,1,1.0,419.3537902832031,419.3537902832031,0.0,423.337158203125,423.337158203125,0.0,422.3550109863281,422.3550109863281,0.0,1.0,1.0,0.0,'2',0.809790313243866,0.809790313243866,0.0,101.0
Fear,stimuli/17F_FE_O.BMP,stimuli/17F_FE_O.BMP,stimuli/16F_FE_O.BMP,stimuli/EmptyFrame.bmp,stimuli/RedFrame.bmp,1,Fear,Female,3,1,1.0,423.36602783203125,423.36602783203125,0.0,427.3363037109375,427.3363037109375,0.0,426.3719482421875,426.3719482421875,0.0,1.0,1.0,0.0,'1',0.7629048228263855,0.7629048228263855,0.0,102.0
Fear,stimuli/15F_FE_O.BMP,stimuli/18F_FE_O.BMP,stimuli/15F_FE_O.BMP,stimuli/EmptyFrame.bmp,stimuli/RedFrame.bmp,2,Fear,Female,3,1,1.0,427.3642578125,427.3642578125,0.0,431.3356018066406,431.3356018066406,0.0,430.3701171875,430.3701171875,0.0,1.0,1.0,0.0,'2',1.1813685894012451,1.1813685894012451,0.0,103.0
Fear,stimuli/21M_FE_O.BMP,stimuli/21M_FE_O.BMP,stimuli/22M_FE_O.BMP,stimuli/EmptyFrame.bmp,stimuli/RedFrame.bmp,1,Fear,Male,3,1,1.0,431.3656005859375,431.3656005859375,0.0,435.3395690917969,435.3395690917969,0.0,434.3692932128906,434.3692932128906,0.0,1.0,1.0,0.0,'1',0.7634156942367554,0.7634156942367554,0.0,104.0
Fear,stimuli/29M_FE_O.BMP,stimuli/30M_FE_O.BMP,stimuli/29M_FE_O.BMP,stimuli/EmptyFrame.bmp,stimuli/RedFrame.bmp,2,Fear,Male,3,1,1.0,435.3686828613281,435.3686828613281,0.0,439.35296630859375,439.35296630859375,0.0,438.367919921875,438.367919921875,0.0,1.0,1.0,0.0,'2',0.709135115146637,0.709135115146637,0.0,105.0
Fear,stimuli/31M_FE_O.BMP,stimuli/31M_FE_O.BMP,stimuli/38M_FE_O.BMP,stimuli/EmptyFrame.bmp,stimuli/RedFrame.bmp,1,Fear,Male,3,1,1.0,439.38580322265625,439.38580322265625,0.0,443.3511047363281,443.3511047363281,0.0,442.3860778808594,442.3860778808594,0.0,1.0,1.0,0.0,'1',0.757846474647522,0.757846474647522,0.0,106.0
Fear,stimuli/09F_FE_O.BMP,stimuli/07F_FE_O.BMP,stimuli/09F_FE_O.BMP,stimuli/EmptyFrame.bmp,stimuli/RedFrame.bmp,2,Fear,Female,3,1,1.0,443.3775939941406,443.3775939941406,0.0,447.3519287109375,447.3519287109375,0.0,446.3835754394531,446.3835754394531,0.0,1.0,1.0,0.0,'2',0.6989883780479431,0.6989883780479431,0.0,107.0
Fear,stimuli/11F_FE_O.BMP,stimuli/12F_FE_O.BMP,stimuli/11F_FE_O.BMP,stimuli/EmptyFrame.bmp,stimuli/RedFrame.bmp,2,Fear,Female,3,1,1.0,447.3749084472656,447.3749084472656,0.0,451.35345458984375,451.35345458984375,0.0,450.3856506347656,450.3856506347656,0.0,1.0,1.0,0.0,'2',0.6701433062553406,0.6701433062553406,0.0,108.0
Fear,stimuli/34M_FE_O.BMP,stimuli/34M_FE_O.BMP,stimuli/33M_FE_O.BMP,stimuli/EmptyFrame.bmp,stimuli/RedFrame.bmp,1,Fear,Male,3,1,1.0,451.3842468261719,451.3842468261719,0.0,455.3507385253906,455.3507385253906,0.0,454.3857116699219,454.3857116699219,0.0,1.0,1.0,0.0,'1',0.7582607865333557,0.7582607865333557,0.0,109.0

extraInfo
participant,sub026
session,002
date,2025_Aug_08_0921
expName,HaririTask_Ver1
psychopyVersion,3.0.1
frameRate,59.87991682755639
