TrialType,Top,Left,Right,EmptyFrame,SelectedFrame,Correct,Emotion,Gender,TrialLength,FixationLength,n,GCFaceStartTime_mean,GCFaceStartTime_raw,GCFaceStartTime_std,GCPostFaceFixationEndTime_mean,GCPostFaceFixationEndTime_raw,GCPostFaceFixationEndTime_std,GCPostFaceFixationStartTime_mean,GCPostFaceFixationStartTime_raw,GCPostFaceFixationStartTime_std,key_resp_trial.corr_mean,key_resp_trial.corr_raw,key_resp_trial.corr_std,key_resp_trial.keys_raw,key_resp_trial.rt_mean,key_resp_trial.rt_raw,key_resp_trial.rt_std,order
MatchFaces,stimuli/MatchFaces.bmp,stimuli/EmptyFace.bmp,stimuli/EmptyFace.bmp,stimuli/EmptyFrame.bmp,stimuli/EmptyFrame.bmp,Null,None,None,3,1,1.0,15.280468940734863,15.280468940734863,0.0,19.047645568847656,19.047645568847656,0.0,18.07353401184082,18.07353401184082,0.0,0.0,0.0,0.0,,,,,0.0
Anger,stimuli/01F_AN_O.bmp,stimuli/19F_AN_O.BMP,stimuli/01F_AN_O.bmp,stimuli/EmptyFrame.bmp,stimuli/RedFrame.bmp,2,Anger,Female,3,1,1.0,19.261018753051758,19.261018753051758,0.0,23.060382843017578,23.060382843017578,0.0,22.076948165893555,22.076948165893555,0.0,1.0,1.0,0.0,'2',0.8148307204246521,0.8148307204246521,0.0,1.0
Anger,stimuli/02f_an_o.bmp,stimuli/18F_AN_O.BMP,stimuli/02f_an_o.bmp,stimuli/EmptyFrame.bmp,stimuli/RedFrame.bmp,2,Anger,Female,3,1,1.0,23.08253288269043,23.08253288269043,0.0,27.081436157226562,27.081436157226562,0.0,26.088825225830078,26.088825225830078,0.0,1.0,1.0,0.0,'2',1.0344399213790894,1.0344399213790894,0.0,2.0
Anger,stimuli/20M_AN_O.BMP,stimuli/34M_AN_O.BMP,stimuli/20M_AN_O.BMP,stimuli/EmptyFrame.bmp,stimuli/RedFrame.bmp,2,Anger,Male,3,1,1.0,27.108781814575195,27.108781814575195,0.0,31.09380340576172,31.09380340576172,0.0,30.116436004638672,30.116436004638672,0.0,1.0,1.0,0.0,'2',0.9241706132888794,0.9241706132888794,0.0,3.0
Anger,stimuli/03F_AN_O.bmp,stimuli/03F_AN_O.bmp,stimuli/17F_AN_O.BMP,stimuli/EmptyFrame.bmp,stimuli/RedFrame.bmp,1,Anger,Female,3,1,1.0,31.11792755126953,31.11792755126953,0.0,35.10831069946289,35.10831069946289,0.0,34.114566802978516,34.114566802978516,0.0,1.0,1.0,0.0,'1',0.865513026714325,0.865513026714325,0.0,4.0
Anger,stimuli/21M_AN_O.BMP,stimuli/21M_AN_O.BMP,stimuli/33M_AN_O.BMP,stimuli/EmptyFrame.bmp,stimuli/RedFrame.bmp,1,Anger,Male,3,1,1.0,35.135009765625,35.135009765625,0.0,39.127037048339844,39.127037048339844,0.0,38.13862609863281,38.13862609863281,0.0,1.0,1.0,0.0,'1',0.9261838793754578,0.9261838793754578,0.0,5.0
Anger,stimuli/22M_AN_O.BMP,stimuli/32M_AN_O.BMP,stimuli/22M_AN_O.BMP,stimuli/EmptyFrame.bmp,stimuli/RedFrame.bmp,2,Anger,Male,3,1,1.0,39.15114974975586,39.15114974975586,0.0,43.14116287231445,43.14116287231445,0.0,42.15869903564453,42.15869903564453,0.0,1.0,1.0,0.0,'2',0.9532331228256226,0.9532331228256226,0.0,6.0
Anger,stimuli/23M_AN_O.BMP,stimuli/23M_AN_O.BMP,stimuli/31M_AN_O.BMP,stimuli/EmptyFrame.bmp,stimuli/RedFrame.bmp,1,Anger,Male,3,1,1.0,43.16505432128906,43.16505432128906,0.0,47.161502838134766,47.161502838134766,0.0,46.17391586303711,46.17391586303711,0.0,1.0,1.0,0.0,'1',0.9225428104400635,0.9225428104400635,0.0,7.0
Anger,stimuli/05F_AN_O.bmp,stimuli/05F_AN_O.bmp,stimuli/16F_AN_O.BMP,stimuli/EmptyFrame.bmp,stimuli/RedFrame.bmp,1,Anger,Female,3,1,1.0,47.1849365234375,47.1849365234375,0.0,51.18083190917969,51.18083190917969,0.0,50.18886184692383,50.18886184692383,0.0,1.0,1.0,0.0,'1',0.6458176970481873,0.6458176970481873,0.0,8.0
Anger,stimuli/06F_AN_O.bmp,stimuli/15F_AN_O.BMP,stimuli/06F_AN_O.bmp,stimuli/EmptyFrame.bmp,stimuli/RedFrame.bmp,2,Anger,Female,3,1,1.0,51.20589828491211,51.20589828491211,0.0,55.20410919189453,55.20410919189453,0.0,54.20637512207031,54.20637512207031,0.0,1.0,1.0,0.0,'2',0.9816967844963074,0.9816967844963074,0.0,9.0
Anger,stimuli/24M_AN_O.BMP,stimuli/24M_AN_O.BMP,stimuli/30M_AN_O.BMP,stimuli/EmptyFrame.bmp,stimuli/RedFrame.bmp,1,Anger,Male,3,1,1.0,55.228614807128906,55.228614807128906,0.0,59.216712951660156,59.216712951660156,0.0,58.22846984863281,58.22846984863281,0.0,1.0,1.0,0.0,'1',0.9407901167869568,0.9407901167869568,0.0,10.0
MatchShape,stimuli/MatchShapes.bmp,stimuli/EmptyFace.bmp,stimuli/EmptyFace.bmp,stimuli/EmptyFrame.bmp,stimuli/EmptyFrame.bmp,Null,None,None,3,1,1.0,59.241458892822266,59.241458892822266,0.0,63.22850799560547,63.22850799560547,0.0,62.234718322753906,62.234718322753906,0.0,0.0,0.0,0.0,,,,,11.0
Shape,stimuli/horizontal.bmp,stimuli/horizontal.bmp,stimuli/circle.bmp,stimuli/EmptyFrame.bmp,stimuli/RedFrame.bmp,1,Shape,None,3,1,1.0,63.26228332519531,63.26228332519531,0.0,67.24534606933594,67.24534606933594,0.0,66.25077819824219,66.25077819824219,0.0,1.0,1.0,0.0,'1',0.8555907011032104,0.8555907011032104,0.0,12.0
Shape,stimuli/vertical.bmp,stimuli/horizontal.bmp,stimuli/vertical.bmp,stimuli/EmptyFrame.bmp,stimuli/RedFrame.bmp,2,Shape,None,3,1,1.0,67.26925659179688,67.26925659179688,0.0,71.26456451416016,71.26456451416016,0.0,70.2658920288086,70.2658920288086,0.0,1.0,1.0,0.0,'2',0.7721720933914185,0.7721720933914185,0.0,13.0
Shape,stimuli/horizontal.bmp,stimuli/horizontal.bmp,stimuli/vertical.bmp,stimuli/EmptyFrame.bmp,stimuli/RedFrame.bmp,1,Shape,None,3,1,1.0,71.28722381591797,71.28722381591797,0.0,75.28704071044922,75.28704071044922,0.0,74.29217529296875,74.29217529296875,0.0,1.0,1.0,0.0,'1',0.8158960938453674,0.8158960938453674,0.0,14.0
Shape,stimuli/horizontal.bmp,stimuli/circle.bmp,stimuli/horizontal.bmp,stimuli/EmptyFrame.bmp,stimuli/RedFrame.bmp,2,Shape,None,3,1,1.0,75.30979919433594,75.30979919433594,0.0,79.3026351928711,79.3026351928711,0.0,78.31607055664062,78.31607055664062,0.0,1.0,1.0,0.0,'2',0.7719265222549438,0.7719265222549438,0.0,15.0
Shape,stimuli/circle.bmp,stimuli/circle.bmp,stimuli/vertical.bmp,stimuli/EmptyFrame.bmp,stimuli/RedFrame.bmp,1,Shape,None,3,1,1.0,79.3247299194336,79.3247299194336,0.0,83.32483673095703,83.32483673095703,0.0,82.32657623291016,82.32657623291016,0.0,1.0,1.0,0.0,'1',0.8902918100357056,0.8902918100357056,0.0,16.0
Shape,stimuli/circle.bmp,stimuli/circle.bmp,stimuli/horizontal.bmp,stimuli/EmptyFrame.bmp,stimuli/RedFrame.bmp,1,Shape,None,3,1,1.0,83.36204528808594,83.36204528808594,0.0,87.34210205078125,87.34210205078125,0.0,86.35631561279297,86.35631561279297,0.0,1.0,1.0,0.0,'1',1.0649223327636719,1.0649223327636719,0.0,17.0
Shape,stimuli/vertical.bmp,stimuli/circle.bmp,stimuli/vertical.bmp,stimuli/EmptyFrame.bmp,stimuli/RedFrame.bmp,2,Shape,None,3,1,1.0,87.3670883178711,87.3670883178711,0.0,91.3599853515625,91.3599853515625,0.0,90.36654663085938,90.36654663085938,0.0,1.0,1.0,0.0,'2',0.9094765782356262,0.9094765782356262,0.0,18.0
Shape,stimuli/circle.bmp,stimuli/vertical.bmp,stimuli/circle.bmp,stimuli/EmptyFrame.bmp,stimuli/RedFrame.bmp,2,Shape,None,3,1,1.0,91.38397216796875,91.38397216796875,0.0,95.38198852539062,95.38198852539062,0.0,94.38578033447266,94.38578033447266,0.0,1.0,1.0,0.0,'2',1.1353429555892944,1.1353429555892944,0.0,19.0
Shape,stimuli/vertical.bmp,stimuli/horizontal.bmp,stimuli/vertical.bmp,stimuli/EmptyFrame.bmp,stimuli/RedFrame.bmp,2,Shape,None,3,1,1.0,95.40485382080078,95.40485382080078,0.0,99.39987182617188,99.39987182617188,0.0,98.40602111816406,98.40602111816406,0.0,1.0,1.0,0.0,'2',0.9459872245788574,0.9459872245788574,0.0,20.0
Shape,stimuli/vertical.bmp,stimuli/vertical.bmp,stimuli/circle.bmp,stimuli/EmptyFrame.bmp,stimuli/RedFrame.bmp,1,Shape,None,3,1,1.0,99.42194366455078,99.42194366455078,0.0,103.41397094726562,103.41397094726562,0.0,102.43512725830078,102.43512725830078,0.0,1.0,1.0,0.0,'1',0.7616133093833923,0.7616133093833923,0.0,21.0
MatchFaces,stimuli/MatchFaces.bmp,stimuli/EmptyFace.bmp,stimuli/EmptyFace.bmp,stimuli/EmptyFrame.bmp,stimuli/EmptyFrame.bmp,Null,None,None,3,1,1.0,103.6450424194336,103.6450424194336,0.0,107.41901397705078,107.41901397705078,0.0,106.42620086669922,106.42620086669922,0.0,0.0,0.0,0.0,,,,,22.0
Neutral,stimuli/20M_NE_C.BMP,stimuli/21M_NE_C.BMP,stimuli/20M_NE_C.BMP,stimuli/EmptyFrame.bmp,stimuli/RedFrame.bmp,2,Neutral,Male,3,1,1.0,107.49104309082031,107.49104309082031,0.0,111.43301391601562,111.43301391601562,0.0,110.44253540039062,110.44253540039062,0.0,1.0,1.0,0.0,'2',1.6357131004333496,1.6357131004333496,0.0,23.0
Neutral,stimuli/01F_NE_C.bmp,stimuli/01F_NE_C.bmp,stimuli/02F_NE_C.bmp,stimuli/EmptyFrame.bmp,stimuli/RedFrame.bmp,1,Neutral,Female,3,1,1.0,111.4582748413086,111.4582748413086,0.0,115.4533462524414,115.4533462524414,0.0,114.47294616699219,114.47294616699219,0.0,1.0,1.0,0.0,'1',0.9119217991828918,0.9119217991828918,0.0,24.0
Neutral,stimuli/22M_NE_C.BMP,stimuli/23M_NE_C.BMP,stimuli/22M_NE_C.BMP,stimuli/EmptyFrame.bmp,stimuli/RedFrame.bmp,2,Neutral,Male,3,1,1.0,115.48358917236328,115.48358917236328,0.0,119.47342681884766,119.47342681884766,0.0,118.47772216796875,118.47772216796875,0.0,1.0,1.0,0.0,'2',1.4792697429656982,1.4792697429656982,0.0,25.0
Neutral,stimuli/24M_NE_C.BMP,stimuli/24M_NE_C.BMP,stimuli/25M_NE_C.BMP,stimuli/EmptyFrame.bmp,stimuli/RedFrame.bmp,1,Neutral,Male,3,1,1.0,119.49815368652344,119.49815368652344,0.0,123.49324035644531,123.49324035644531,0.0,122.50225067138672,122.50225067138672,0.0,1.0,1.0,0.0,'1',0.932557225227356,0.932557225227356,0.0,26.0
Neutral,stimuli/03F_NE_C.bmp,stimuli/05F_NE_C.bmp,stimuli/03F_NE_C.bmp,stimuli/EmptyFrame.bmp,stimuli/RedFrame.bmp,2,Neutral,Female,3,1,1.0,123.5189437866211,123.5189437866211,0.0,127.50409698486328,127.50409698486328,0.0,126.52064514160156,126.52064514160156,0.0,1.0,1.0,0.0,'2',0.9292104840278625,0.9292104840278625,0.0,27.0
Neutral,stimuli/26M_NE_C.BMP,stimuli/26M_NE_C.BMP,stimuli/27M_NE_C.BMP,stimuli/EmptyFrame.bmp,stimuli/RedFrame.bmp,1,Neutral,Male,3,1,1.0,127.52759552001953,127.52759552001953,0.0,131.52279663085938,131.52279663085938,0.0,130.53518676757812,130.53518676757812,0.0,1.0,1.0,0.0,'1',0.9569926261901855,0.9569926261901855,0.0,28.0
Neutral,stimuli/06F_NE_C.bmp,stimuli/07F_NE_C.BMP,stimuli/06F_NE_C.bmp,stimuli/EmptyFrame.bmp,stimuli/RedFrame.bmp,2,Neutral,Female,3,1,1.0,131.5469207763672,131.5469207763672,0.0,135.53787231445312,135.53787231445312,0.0,134.5442657470703,134.5442657470703,0.0,1.0,1.0,0.0,'2',0.9918591976165771,0.9918591976165771,0.0,29.0
Neutral,stimuli/08F_NE_C.BMP,stimuli/08F_NE_C.BMP,stimuli/09F_NE_C.BMP,stimuli/EmptyFrame.bmp,stimuli/RedFrame.bmp,1,Neutral,Female,3,1,1.0,135.5640411376953,135.5640411376953,0.0,139.5562744140625,139.5562744140625,0.0,138.5596160888672,138.5596160888672,0.0,1.0,1.0,0.0,'1',1.3549271821975708,1.3549271821975708,0.0,30.0
Neutral,stimuli/28M_NE_C.BMP,stimuli/29M_NE_C.BMP,stimuli/28M_NE_C.BMP,stimuli/EmptyFrame.bmp,stimuli/RedFrame.bmp,2,Neutral,Male,3,1,1.0,139.5847930908203,139.5847930908203,0.0,143.5711669921875,143.5711669921875,0.0,142.57980346679688,142.57980346679688,0.0,1.0,1.0,0.0,'2',1.145784854888916,1.145784854888916,0.0,31.0
Neutral,stimuli/10F_NE_C.BMP,stimuli/10F_NE_C.BMP,stimuli/06F_NE_C.bmp,stimuli/EmptyFrame.bmp,stimuli/RedFrame.bmp,1,Neutral,Female,3,1,1.0,143.5946502685547,143.5946502685547,0.0,147.59317016601562,147.59317016601562,0.0,146.60096740722656,146.60096740722656,0.0,1.0,1.0,0.0,'1',0.8174623847007751,0.8174623847007751,0.0,32.0
MatchFaces,stimuli/MatchFaces.bmp,stimuli/EmptyFace.bmp,stimuli/EmptyFace.bmp,stimuli/EmptyFrame.bmp,stimuli/EmptyFrame.bmp,Null,None,None,3,1,1.0,147.79652404785156,147.79652404785156,0.0,151.59506225585938,151.59506225585938,0.0,150.60801696777344,150.60801696777344,0.0,0.0,0.0,0.0,,,,,33.0
Fear,stimuli/07F_FE_O.BMP,stimuli/07F_FE_O.BMP,stimuli/14F_FE_O.BMP,stimuli/EmptyFrame.bmp,stimuli/RedFrame.bmp,1,Fear,Female,3,1,1.0,151.65884399414062,151.65884399414062,0.0,155.60658264160156,155.60658264160156,0.0,154.6239471435547,154.6239471435547,0.0,1.0,1.0,0.0,'1',1.1082441806793213,1.1082441806793213,0.0,34.0
Fear,stimuli/25M_FE_O.BMP,stimuli/29M_FE_O.BMP,stimuli/25M_FE_O.BMP,stimuli/EmptyFrame.bmp,stimuli/RedFrame.bmp,2,Fear,Male,3,1,1.0,155.63206481933594,155.63206481933594,0.0,159.62034606933594,159.62034606933594,0.0,158.63180541992188,158.63180541992188,0.0,1.0,1.0,0.0,'2',0.9825481176376343,0.9825481176376343,0.0,35.0
Fear,stimuli/26M_FE_O.BMP,stimuli/26M_FE_O.BMP,stimuli/28M_FE_O.BMP,stimuli/EmptyFrame.bmp,stimuli/RedFrame.bmp,1,Fear,Male,3,1,1.0,159.64308166503906,159.64308166503906,0.0,163.63250732421875,163.63250732421875,0.0,162.6549530029297,162.6549530029297,0.0,1.0,1.0,0.0,'1',0.8215919137001038,0.8215919137001038,0.0,36.0
Fear,stimuli/08F_FE_O.BMP,stimuli/13F_FE_O.BMP,stimuli/08F_FE_O.BMP,stimuli/EmptyFrame.bmp,stimuli/RedFrame.bmp,2,Fear,Female,3,1,1.0,163.65277099609375,163.65277099609375,0.0,167.64373779296875,167.64373779296875,0.0,166.6705322265625,166.6705322265625,0.0,1.0,1.0,0.0,'2',0.8720986843109131,0.8720986843109131,0.0,37.0
Fear,stimuli/09F_FE_O.BMP,stimuli/09F_FE_O.BMP,stimuli/12F_FE_O.BMP,stimuli/EmptyFrame.bmp,stimuli/RedFrame.bmp,1,Fear,Female,3,1,1.0,167.6662139892578,167.6662139892578,0.0,171.65713500976562,171.65713500976562,0.0,170.6663360595703,170.6663360595703,0.0,1.0,1.0,0.0,'1',0.8091973066329956,0.8091973066329956,0.0,38.0
Fear,stimuli/27M_FE_O.BMP,stimuli/26M_FE_O.BMP,stimuli/27M_FE_O.BMP,stimuli/EmptyFrame.bmp,stimuli/RedFrame.bmp,2,Fear,Male,3,1,1.0,171.68382263183594,171.68382263183594,0.0,175.6703338623047,175.6703338623047,0.0,174.6888427734375,174.6888427734375,0.0,1.0,1.0,0.0,'2',0.7991297245025635,0.7991297245025635,0.0,39.0
Fear,stimuli/28M_FE_O.BMP,stimuli/28M_FE_O.BMP,stimuli/25M_FE_O.BMP,stimuli/EmptyFrame.bmp,stimuli/RedFrame.bmp,1,Fear,Male,3,1,1.0,175.69215393066406,175.69215393066406,0.0,179.68466186523438,179.68466186523438,0.0,178.69544982910156,178.69544982910156,0.0,1.0,1.0,0.0,'1',0.8720448017120361,0.8720448017120361,0.0,40.0
Fear,stimuli/10F_FE_O.BMP,stimuli/11F_FE_O.BMP,stimuli/10F_FE_O.BMP,stimuli/EmptyFrame.bmp,stimuli/RedFrame.bmp,2,Fear,Female,3,1,1.0,179.70791625976562,179.70791625976562,0.0,183.70294189453125,183.70294189453125,0.0,182.70790100097656,182.70790100097656,0.0,1.0,1.0,0.0,'2',0.7421275973320007,0.7421275973320007,0.0,41.0
Fear,stimuli/29M_FE_O.BMP,stimuli/29M_FE_O.BMP,stimuli/24M_FE_O.BMP,stimuli/EmptyFrame.bmp,stimuli/RedFrame.bmp,1,Fear,Male,3,1,1.0,183.72634887695312,183.72634887695312,0.0,187.72262573242188,187.72262573242188,0.0,186.74124145507812,186.74124145507812,0.0,1.0,1.0,0.0,'1',0.9252862930297852,0.9252862930297852,0.0,42.0
Fear,stimuli/11F_FE_O.BMP,stimuli/10F_FE_O.BMP,stimuli/11F_FE_O.BMP,stimuli/EmptyFrame.bmp,stimuli/RedFrame.bmp,2,Fear,Female,3,1,1.0,187.7460479736328,187.7460479736328,0.0,191.7325897216797,191.7325897216797,0.0,190.75169372558594,190.75169372558594,0.0,1.0,1.0,0.0,'2',0.835154116153717,0.835154116153717,0.0,43.0
MatchFaces,stimuli/MatchFaces.bmp,stimuli/EmptyFace.bmp,stimuli/EmptyFace.bmp,stimuli/EmptyFrame.bmp,stimuli/EmptyFrame.bmp,Null,None,None,3,1,1.0,191.93161010742188,191.93161010742188,0.0,195.73422241210938,195.73422241210938,0.0,194.74362182617188,194.74362182617188,0.0,0.0,0.0,0.0,,,,,44.0
Happy,stimuli/19F_HA_O.BMP,stimuli/19F_HA_O.BMP,stimuli/18F_HA_O.BMP,stimuli/EmptyFrame.bmp,stimuli/RedFrame.bmp,1,Happy,Female,3,1,1.0,195.79823303222656,195.79823303222656,0.0,199.75112915039062,199.75112915039062,0.0,198.75408935546875,198.75408935546875,0.0,1.0,1.0,0.0,'1',0.9318823218345642,0.9318823218345642,0.0,45.0
Happy,stimuli/17F_HA_O.BMP,stimuli/16F_HA_O.BMP,stimuli/17F_HA_O.BMP,stimuli/EmptyFrame.bmp,stimuli/RedFrame.bmp,2,Happy,Female,3,1,1.0,199.77716064453125,199.77716064453125,0.0,203.77076721191406,203.77076721191406,0.0,202.78382873535156,202.78382873535156,0.0,1.0,1.0,0.0,'2',0.9916446208953857,0.9916446208953857,0.0,46.0
Happy,stimuli/43M_HA_O.BMP,stimuli/42M_HA_O.BMP,stimuli/43M_HA_O.BMP,stimuli/EmptyFrame.bmp,stimuli/RedFrame.bmp,2,Happy,Male,3,1,1.0,203.7934112548828,203.7934112548828,0.0,207.8111114501953,207.8111114501953,0.0,206.8025360107422,206.8025360107422,0.0,1.0,1.0,0.0,'2',1.278753638267517,1.278753638267517,0.0,47.0
Happy,stimuli/41M_HA_O.BMP,stimuli/41M_HA_O.BMP,stimuli/40M_HA_O.BMP,stimuli/EmptyFrame.bmp,stimuli/RedFrame.bmp,1,Happy,Male,3,1,1.0,207.85072326660156,207.85072326660156,0.0,211.82351684570312,211.82351684570312,0.0,210.8433837890625,210.8433837890625,0.0,1.0,1.0,0.0,'1',0.9186810851097107,0.9186810851097107,0.0,48.0
Happy,stimuli/15F_HA_O.BMP,stimuli/15F_HA_O.BMP,stimuli/14F_HA_O.BMP,stimuli/EmptyFrame.bmp,stimuli/RedFrame.bmp,1,Happy,Female,3,1,1.0,211.85101318359375,211.85101318359375,0.0,215.83522033691406,215.83522033691406,0.0,214.85777282714844,214.85777282714844,0.0,1.0,1.0,0.0,'1',1.0265543460845947,1.0265543460845947,0.0,49.0
Happy,stimuli/13F_HA_O.BMP,stimuli/13F_HA_O.BMP,stimuli/12F_HA_O.BMP,stimuli/EmptyFrame.bmp,stimuli/RedFrame.bmp,1,Happy,Female,3,1,1.0,215.85963439941406,215.85963439941406,0.0,219.84585571289062,219.84585571289062,0.0,218.86636352539062,218.86636352539062,0.0,1.0,1.0,0.0,'1',0.9202281832695007,0.9202281832695007,0.0,50.0
Happy,stimuli/39M_HA_O.BMP,stimuli/38M_HA_O.BMP,stimuli/39M_HA_O.BMP,stimuli/EmptyFrame.bmp,stimuli/RedFrame.bmp,2,Happy,Male,3,1,1.0,219.86769104003906,219.86769104003906,0.0,223.85833740234375,223.85833740234375,0.0,222.88037109375,222.88037109375,0.0,1.0,1.0,0.0,'2',1.2828137874603271,1.2828137874603271,0.0,51.0
Happy,stimuli/37M_HA_O.BMP,stimuli/37M_HA_O.BMP,stimuli/36M_HA_O.BMP,stimuli/EmptyFrame.bmp,stimuli/RedFrame.bmp,1,Happy,Male,3,1,1.0,223.88229370117188,223.88229370117188,0.0,227.87973022460938,227.87973022460938,0.0,226.8928985595703,226.8928985595703,0.0,1.0,1.0,0.0,'1',1.1100785732269287,1.1100785732269287,0.0,52.0
Happy,stimuli/35M_HA_O.BMP,stimuli/34M_HA_O.BMP,stimuli/35M_HA_O.BMP,stimuli/EmptyFrame.bmp,stimuli/RedFrame.bmp,2,Happy,Male,3,1,1.0,227.9003448486328,227.9003448486328,0.0,231.89463806152344,231.89463806152344,0.0,230.9044189453125,230.9044189453125,0.0,1.0,1.0,0.0,'2',1.0312591791152954,1.0312591791152954,0.0,53.0
Happy,stimuli/11F_HA_O.BMP,stimuli/10F_HA_O.BMP,stimuli/11F_HA_O.BMP,stimuli/EmptyFrame.bmp,stimuli/RedFrame.bmp,2,Happy,Female,3,1,1.0,231.9188232421875,231.9188232421875,0.0,235.90914916992188,235.90914916992188,0.0,234.92098999023438,234.92098999023438,0.0,1.0,1.0,0.0,'2',0.8958221077919006,0.8958221077919006,0.0,54.0
Match Shape,stimuli/MatchShapes.bmp,stimuli/EmptyFace.bmp,stimuli/EmptyFace.bmp,stimuli/EmptyFrame.bmp,stimuli/EmptyFrame.bmp,Null,None,None,3,1,1.0,235.93113708496094,235.93113708496094,0.0,239.916748046875,239.916748046875,0.0,238.91677856445312,238.91677856445312,0.0,0.0,0.0,0.0,,,,,55.0
Shape,stimuli/circle.bmp,stimuli/vertical.bmp,stimuli/circle.bmp,stimuli/EmptyFrame.bmp,stimuli/RedFrame.bmp,2,Shape,None,3,1,1.0,239.94586181640625,239.94586181640625,0.0,243.93312072753906,243.93312072753906,0.0,242.94540405273438,242.94540405273438,0.0,1.0,1.0,0.0,'2',0.7928590774536133,0.7928590774536133,0.0,56.0
Shape,stimuli/horizontal.bmp,stimuli/circle.bmp,stimuli/horizontal.bmp,stimuli/EmptyFrame.bmp,stimuli/RedFrame.bmp,2,Shape,None,3,1,1.0,243.95407104492188,243.95407104492188,0.0,247.95181274414062,247.95181274414062,0.0,246.96298217773438,246.96298217773438,0.0,1.0,1.0,0.0,'2',0.7713261842727661,0.7713261842727661,0.0,57.0
Shape,stimuli/vertical.bmp,stimuli/vertical.bmp,stimuli/horizontal.bmp,stimuli/EmptyFrame.bmp,stimuli/RedFrame.bmp,1,Shape,None,3,1,1.0,247.97479248046875,247.97479248046875,0.0,251.96884155273438,251.96884155273438,0.0,250.9810028076172,250.9810028076172,0.0,1.0,1.0,0.0,'1',0.7611023187637329,0.7611023187637329,0.0,58.0
Shape,stimuli/horizontal.bmp,stimuli/circle.bmp,stimuli/horizontal.bmp,stimuli/EmptyFrame.bmp,stimuli/RedFrame.bmp,2,Shape,None,3,1,1.0,251.98826599121094,251.98826599121094,0.0,255.9831085205078,255.9831085205078,0.0,254.9973602294922,254.9973602294922,0.0,1.0,1.0,0.0,'2',0.7235873937606812,0.7235873937606812,0.0,59.0
Shape,stimuli/horizontal.bmp,stimuli/horizontal.bmp,stimuli/vertical.bmp,stimuli/EmptyFrame.bmp,stimuli/RedFrame.bmp,1,Shape,None,3,1,1.0,256.0062255859375,256.0062255859375,0.0,260.0015563964844,260.0015563964844,0.0,259.0075378417969,259.0075378417969,0.0,1.0,1.0,0.0,'1',0.6873688101768494,0.6873688101768494,0.0,60.0
Shape,stimuli/vertical.bmp,stimuli/vertical.bmp,stimuli/circle.bmp,stimuli/EmptyFrame.bmp,stimuli/RedFrame.bmp,1,Shape,None,3,1,1.0,260.02447509765625,260.02447509765625,0.0,264.0140686035156,264.0140686035156,0.0,263.0335998535156,263.0335998535156,0.0,1.0,1.0,0.0,'1',0.5571771860122681,0.5571771860122681,0.0,61.0
Shape,stimuli/circle.bmp,stimuli/horizontal.bmp,stimuli/circle.bmp,stimuli/EmptyFrame.bmp,stimuli/RedFrame.bmp,2,Shape,None,3,1,1.0,264.0357666015625,264.0357666015625,0.0,268.0223083496094,268.0223083496094,0.0,267.0416564941406,267.0416564941406,0.0,1.0,1.0,0.0,'2',0.6070001721382141,0.6070001721382141,0.0,62.0
Shape,stimuli/circle.bmp,stimuli/vertical.bmp,stimuli/circle.bmp,stimuli/EmptyFrame.bmp,stimuli/RedFrame.bmp,2,Shape,None,3,1,1.0,268.0417785644531,268.0417785644531,0.0,272.0390319824219,272.0390319824219,0.0,271.0450439453125,271.0450439453125,0.0,1.0,1.0,0.0,'2',0.6297597885131836,0.6297597885131836,0.0,63.0
Shape,stimuli/vertical.bmp,stimuli/vertical.bmp,stimuli/horizontal.bmp,stimuli/EmptyFrame.bmp,stimuli/RedFrame.bmp,1,Shape,None,3,1,1.0,272.0614013671875,272.0614013671875,0.0,276.0565185546875,276.0565185546875,0.0,275.0714416503906,275.0714416503906,0.0,1.0,1.0,0.0,'1',0.6595541834831238,0.6595541834831238,0.0,64.0
Shape,stimuli/horizontal.bmp,stimuli/horizontal.bmp,stimuli/circle.bmp,stimuli/EmptyFrame.bmp,stimuli/RedFrame.bmp,1,Shape,None,3,1,1.0,276.0773620605469,276.0773620605469,0.0,280.0733642578125,280.0733642578125,0.0,279.0856628417969,279.0856628417969,0.0,1.0,1.0,0.0,'1',0.6195539236068726,0.6195539236068726,0.0,65.0
MatchFaces,stimuli/MatchFaces.bmp,stimuli/EmptyFace.bmp,stimuli/EmptyFace.bmp,stimuli/EmptyFrame.bmp,stimuli/EmptyFrame.bmp,Null,None,None,3,1,1.0,280.3162841796875,280.3162841796875,0.0,284.08428955078125,284.08428955078125,0.0,283.0829162597656,283.0829162597656,0.0,0.0,0.0,0.0,,,,,66.0
Anger,stimuli/42M_AN_O.BMP,stimuli/42M_AN_O.BMP,stimuli/43M_AN_O.BMP,stimuli/EmptyFrame.bmp,stimuli/RedFrame.bmp,1,Anger,Male,3,1,1.0,284.15289306640625,284.15289306640625,0.0,288.0977783203125,288.0977783203125,0.0,287.1146240234375,287.1146240234375,0.0,1.0,1.0,0.0,'1',0.8474195003509521,0.8474195003509521,0.0,67.0
Anger,stimuli/07F_AN_O.BMP,stimuli/07F_AN_O.BMP,stimuli/14F_AN_O.BMP,stimuli/EmptyFrame.bmp,stimuli/RedFrame.bmp,1,Anger,Female,3,1,1.0,288.1194763183594,288.1194763183594,0.0,292.11859130859375,292.11859130859375,0.0,291.1214904785156,291.1214904785156,0.0,1.0,1.0,0.0,'1',0.8666157722473145,0.8666157722473145,0.0,68.0
Anger,stimuli/40M_AN_O.BMP,stimuli/41M_AN_O.BMP,stimuli/40M_AN_O.BMP,stimuli/EmptyFrame.bmp,stimuli/RedFrame.bmp,2,Anger,Male,3,1,1.0,292.14593505859375,292.14593505859375,0.0,296.13238525390625,296.13238525390625,0.0,295.166748046875,295.166748046875,0.0,1.0,1.0,0.0,'2',0.7713580131530762,0.7713580131530762,0.0,69.0
Anger,stimuli/38M_AN_O.BMP,stimuli/39M_AN_O.BMP,stimuli/38M_AN_O.BMP,stimuli/EmptyFrame.bmp,stimuli/RedFrame.bmp,2,Anger,Male,3,1,1.0,296.1573791503906,296.1573791503906,0.0,300.1474914550781,300.1474914550781,0.0,299.1600341796875,299.1600341796875,0.0,1.0,1.0,0.0,'2',0.9212194085121155,0.9212194085121155,0.0,70.0
Anger,stimuli/08F_AN_O.BMP,stimuli/08F_AN_O.BMP,stimuli/13F_AN_O.BMP,stimuli/EmptyFrame.bmp,stimuli/RedFrame.bmp,1,Anger,Female,3,1,1.0,300.1712341308594,300.1712341308594,0.0,304.16033935546875,304.16033935546875,0.0,303.1763916015625,303.1763916015625,0.0,1.0,1.0,0.0,'1',0.9487320184707642,0.9487320184707642,0.0,71.0
Anger,stimuli/36M_AN_O.BMP,stimuli/37M_AN_O.BMP,stimuli/36M_AN_O.BMP,stimuli/EmptyFrame.bmp,stimuli/RedFrame.bmp,2,Anger,Male,3,1,1.0,304.1845703125,304.1845703125,0.0,308.18304443359375,308.18304443359375,0.0,307.18304443359375,307.18304443359375,0.0,1.0,1.0,0.0,'2',1.0305006504058838,1.0305006504058838,0.0,72.0
Anger,stimuli/09F_AN_O.BMP,stimuli/12F_AN_O.BMP,stimuli/09F_AN_O.BMP,stimuli/EmptyFrame.bmp,stimuli/RedFrame.bmp,2,Anger,Female,3,1,1.0,308.2071228027344,308.2071228027344,0.0,312.20166015625,312.20166015625,0.0,311.21649169921875,311.21649169921875,0.0,1.0,1.0,0.0,'2',0.7338045239448547,0.7338045239448547,0.0,73.0
Anger,stimuli/34M_AN_O.BMP,stimuli/35M_AN_O.BMP,stimuli/34M_AN_O.BMP,stimuli/EmptyFrame.bmp,stimuli/RedFrame.bmp,2,Anger,Male,3,1,1.0,312.222412109375,312.222412109375,0.0,316.2200012207031,316.2200012207031,0.0,315.229736328125,315.229736328125,0.0,1.0,1.0,0.0,'2',0.7073366045951843,0.7073366045951843,0.0,74.0
Anger,stimuli/10F_AN_O.BMP,stimuli/10F_AN_O.BMP,stimuli/11F_AN_O.BMP,stimuli/EmptyFrame.bmp,stimuli/RedFrame.bmp,1,Anger,Female,3,1,1.0,316.2436218261719,316.2436218261719,0.0,320.2292175292969,320.2292175292969,0.0,319.25079345703125,319.25079345703125,0.0,1.0,1.0,0.0,'1',0.7401989698410034,0.7401989698410034,0.0,75.0
Anger,stimuli/12F_AN_O.BMP,stimuli/12F_AN_O.BMP,stimuli/13F_AN_O.BMP,stimuli/EmptyFrame.bmp,stimuli/RedFrame.bmp,1,Anger,Female,3,1,1.0,320.2529602050781,320.2529602050781,0.0,324.2480163574219,324.2480163574219,0.0,323.2529602050781,323.2529602050781,0.0,1.0,1.0,0.0,'1',0.9972326159477234,0.9972326159477234,0.0,76.0
MatchFaces,stimuli/MatchFaces.bmp,stimuli/EmptyFace.bmp,stimuli/EmptyFace.bmp,stimuli/EmptyFrame.bmp,stimuli/EmptyFrame.bmp,Null,None,None,3,1,1.0,324.45416259765625,324.45416259765625,0.0,328.2518615722656,328.2518615722656,0.0,327.2547607421875,327.2547607421875,0.0,0.0,0.0,0.0,,,,,77.0
Happy,stimuli/20M_HA_O.BMP,stimuli/21M_HA_O.BMP,stimuli/20M_HA_O.BMP,stimuli/EmptyFrame.bmp,stimuli/RedFrame.bmp,2,Happy,Male,3,1,1.0,328.3189697265625,328.3189697265625,0.0,332.27362060546875,332.27362060546875,0.0,331.2830505371094,331.2830505371094,0.0,1.0,1.0,0.0,'2',1.3102624416351318,1.3102624416351318,0.0,78.0
Happy,stimuli/01F_HA_O.bmp,stimuli/01F_HA_O.bmp,stimuli/02F_HA_O.bmp,stimuli/EmptyFrame.bmp,stimuli/RedFrame.bmp,1,Happy,Female,3,1,1.0,332.2975158691406,332.2975158691406,0.0,336.2832946777344,336.2832946777344,0.0,335.2993469238281,335.2993469238281,0.0,1.0,1.0,0.0,'1',0.8167577981948853,0.8167577981948853,0.0,79.0
Happy,stimuli/22M_HA_O.BMP,stimuli/23M_HA_O.BMP,stimuli/22M_HA_O.BMP,stimuli/EmptyFrame.bmp,stimuli/RedFrame.bmp,2,Happy,Male,3,1,1.0,336.3088073730469,336.3088073730469,0.0,340.31329345703125,340.31329345703125,0.0,339.31231689453125,339.31231689453125,0.0,1.0,1.0,0.0,'2',1.1942322254180908,1.1942322254180908,0.0,80.0
Happy,stimuli/24M_HA_O.BMP,stimuli/24M_HA_O.BMP,stimuli/25M_HA_O.BMP,stimuli/EmptyFrame.bmp,stimuli/RedFrame.bmp,1,Happy,Male,3,1,1.0,340.3387145996094,340.3387145996094,0.0,344.3245544433594,344.3245544433594,0.0,343.341552734375,343.341552734375,0.0,1.0,1.0,0.0,'1',0.8793262243270874,0.8793262243270874,0.0,81.0
Happy,stimuli/03F_HA_O.bmp,stimuli/05F_HA_O.bmp,stimuli/03F_HA_O.bmp,stimuli/EmptyFrame.bmp,stimuli/RedFrame.bmp,2,Happy,Female,3,1,1.0,344.34649658203125,344.34649658203125,0.0,348.3427734375,348.3427734375,0.0,347.3475341796875,347.3475341796875,0.0,1.0,1.0,0.0,'2',0.8500174283981323,0.8500174283981323,0.0,82.0
Happy,stimuli/26M_HA_O.BMP,stimuli/26M_HA_O.BMP,stimuli/27M_HA_O.BMP,stimuli/EmptyFrame.bmp,stimuli/RedFrame.bmp,1,Happy,Male,3,1,1.0,348.36517333984375,348.36517333984375,0.0,352.3719787597656,352.3719787597656,0.0,351.36956787109375,351.36956787109375,0.0,1.0,1.0,0.0,'1',0.6699190735816956,0.6699190735816956,0.0,83.0
Happy,stimuli/06F_HA_O.bmp,stimuli/07F_HA_O.BMP,stimuli/06F_HA_O.bmp,stimuli/EmptyFrame.bmp,stimuli/RedFrame.bmp,2,Happy,Female,3,1,1.0,352.40142822265625,352.40142822265625,0.0,356.3901062011719,356.3901062011719,0.0,355.4058837890625,355.4058837890625,0.0,1.0,1.0,0.0,'2',0.7997525930404663,0.7997525930404663,0.0,84.0
Happy,stimuli/08F_HA_O.BMP,stimuli/08F_HA_O.BMP,stimuli/09F_HA_O.BMP,stimuli/EmptyFrame.bmp,stimuli/RedFrame.bmp,1,Happy,Female,3,1,1.0,356.4140930175781,356.4140930175781,0.0,360.4028015136719,360.4028015136719,0.0,359.4217529296875,359.4217529296875,0.0,1.0,1.0,0.0,'1',1.015702247619629,1.015702247619629,0.0,85.0
Happy,stimuli/28M_HA_O.BMP,stimuli/29M_HA_O.BMP,stimuli/28M_HA_O.BMP,stimuli/EmptyFrame.bmp,stimuli/RedFrame.bmp,2,Happy,Male,3,1,1.0,360.4248352050781,360.4248352050781,0.0,364.421630859375,364.421630859375,0.0,363.4342346191406,363.4342346191406,0.0,1.0,1.0,0.0,'2',1.1489568948745728,1.1489568948745728,0.0,86.0
Happy,stimuli/10F_HA_O.BMP,stimuli/10F_HA_O.BMP,stimuli/06F_HA_O.bmp,stimuli/EmptyFrame.bmp,stimuli/RedFrame.bmp,1,Happy,Female,3,1,1.0,364.4440002441406,364.4440002441406,0.0,368.440673828125,368.440673828125,0.0,367.4563293457031,367.4563293457031,0.0,1.0,1.0,0.0,'1',0.6996715068817139,0.6996715068817139,0.0,87.0
MatchFaces,stimuli/MatchFaces.bmp,stimuli/EmptyFace.bmp,stimuli/EmptyFace.bmp,stimuli/EmptyFrame.bmp,stimuli/EmptyFrame.bmp,Null,None,None,3,1,1.0,368.715087890625,368.715087890625,0.0,372.4446716308594,372.4446716308594,0.0,371.4503173828125,371.4503173828125,0.0,0.0,0.0,0.0,,,,,88.0
Neutral,stimuli/07F_NE_C.BMP,stimuli/07F_NE_C.BMP,stimuli/14F_NE_C.BMP,stimuli/EmptyFrame.bmp,stimuli/RedFrame.bmp,1,Neutral,Female,3,1,1.0,372.51312255859375,372.51312255859375,0.0,376.45660400390625,376.45660400390625,0.0,375.47296142578125,375.47296142578125,0.0,1.0,1.0,0.0,'1',0.6836647987365723,0.6836647987365723,0.0,89.0
Neutral,stimuli/25M_NE_C.BMP,stimuli/29M_NE_C.BMP,stimuli/25M_NE_C.BMP,stimuli/EmptyFrame.bmp,stimuli/RedFrame.bmp,2,Neutral,Male,3,1,1.0,376.4801025390625,376.4801025390625,0.0,380.4670715332031,380.4670715332031,0.0,379.4872741699219,379.4872741699219,0.0,1.0,1.0,0.0,'2',0.9180933237075806,0.9180933237075806,0.0,90.0
Neutral,stimuli/26M_NE_C.BMP,stimuli/26M_NE_C.BMP,stimuli/28M_NE_C.BMP,stimuli/EmptyFrame.bmp,stimuli/RedFrame.bmp,1,Neutral,Male,3,1,1.0,380.4868469238281,380.4868469238281,0.0,384.48223876953125,384.48223876953125,0.0,383.5059509277344,383.5059509277344,0.0,1.0,1.0,0.0,'1',0.6281095743179321,0.6281095743179321,0.0,91.0
Neutral,stimuli/08F_NE_C.BMP,stimuli/13F_NE_C.BMP,stimuli/08F_NE_C.BMP,stimuli/EmptyFrame.bmp,stimuli/RedFrame.bmp,2,Neutral,Female,3,1,1.0,384.5072937011719,384.5072937011719,0.0,388.5035705566406,388.5035705566406,0.0,387.5060119628906,387.5060119628906,0.0,1.0,1.0,0.0,'2',1.3311951160430908,1.3311951160430908,0.0,92.0
Neutral,stimuli/09F_NE_C.BMP,stimuli/09F_NE_C.BMP,stimuli/12F_NE_C.BMP,stimuli/EmptyFrame.bmp,stimuli/RedFrame.bmp,1,Neutral,Female,3,1,1.0,388.5291442871094,388.5291442871094,0.0,392.5215759277344,392.5215759277344,0.0,391.5274963378906,391.5274963378906,0.0,1.0,1.0,0.0,'1',0.7685326933860779,0.7685326933860779,0.0,93.0
Neutral,stimuli/27M_NE_C.BMP,stimuli/26M_NE_C.BMP,stimuli/27M_NE_C.BMP,stimuli/EmptyFrame.bmp,stimuli/RedFrame.bmp,2,Neutral,Male,3,1,1.0,392.5456237792969,392.5456237792969,0.0,396.53912353515625,396.53912353515625,0.0,395.5423278808594,395.5423278808594,0.0,1.0,1.0,0.0,'2',0.6047502756118774,0.6047502756118774,0.0,94.0
Neutral,stimuli/28M_NE_C.BMP,stimuli/28M_NE_C.BMP,stimuli/25M_NE_C.BMP,stimuli/EmptyFrame.bmp,stimuli/RedFrame.bmp,1,Neutral,Male,3,1,1.0,396.55950927734375,396.55950927734375,0.0,400.55853271484375,400.55853271484375,0.0,399.56201171875,399.56201171875,0.0,1.0,1.0,0.0,'1',0.8173112273216248,0.8173112273216248,0.0,95.0
Neutral,stimuli/10F_NE_C.BMP,stimuli/11F_NE_C.BMP,stimuli/10F_NE_C.BMP,stimuli/EmptyFrame.bmp,stimuli/RedFrame.bmp,2,Neutral,Female,3,1,1.0,400.591064453125,400.591064453125,0.0,404.5685119628906,404.5685119628906,0.0,403.585205078125,403.585205078125,0.0,1.0,1.0,0.0,'2',0.6351084113121033,0.6351084113121033,0.0,96.0
Neutral,stimuli/29M_NE_C.BMP,stimuli/29M_NE_C.BMP,stimuli/24M_NE_C.BMP,stimuli/EmptyFrame.bmp,stimuli/RedFrame.bmp,1,Neutral,Male,3,1,1.0,404.59051513671875,404.59051513671875,0.0,408.5849609375,408.5849609375,0.0,407.6000061035156,407.6000061035156,0.0,1.0,1.0,0.0,'1',0.8755735754966736,0.8755735754966736,0.0,97.0
Neutral,stimuli/11F_NE_C.BMP,stimuli/10F_NE_C.BMP,stimuli/11F_NE_C.BMP,stimuli/EmptyFrame.bmp,stimuli/RedFrame.bmp,2,Neutral,Female,3,1,1.0,408.6092834472656,408.6092834472656,0.0,412.6015319824219,412.6015319824219,0.0,411.60858154296875,411.60858154296875,0.0,1.0,1.0,0.0,'2',0.7170054912567139,0.7170054912567139,0.0,98.0
MatchFaces,stimuli/MatchFaces.bmp,stimuli/EmptyFace.bmp,stimuli/EmptyFace.bmp,stimuli/EmptyFrame.bmp,stimuli/EmptyFrame.bmp,Null,None,None,3,1,1.0,412.81622314453125,412.81622314453125,0.0,416.6047058105469,416.6047058105469,0.0,415.6154479980469,415.6154479980469,0.0,0.0,0.0,0.0,,,,,99.0
Fear,stimuli/23M_FE_O.BMP,stimuli/23M_FE_O.BMP,stimuli/24M_FE_O.BMP,stimuli/EmptyFrame.bmp,stimuli/RedFrame.bmp,1,Fear,Male,3,1,1.0,416.6663818359375,416.6663818359375,0.0,420.6161193847656,420.6161193847656,0.0,419.62762451171875,419.62762451171875,0.0,1.0,1.0,0.0,'1',1.2233612537384033,1.2233612537384033,0.0,100.0
Fear,stimuli/19F_FE_O.BMP,stimuli/18F_FE_O.BMP,stimuli/19F_FE_O.BMP,stimuli/EmptyFrame.bmp,stimuli/RedFrame.bmp,2,Fear,Female,3,1,1.0,420.6358337402344,420.6358337402344,0.0,424.63287353515625,424.63287353515625,0.0,423.6440734863281,423.6440734863281,0.0,1.0,1.0,0.0,'2',0.7034128904342651,0.7034128904342651,0.0,101.0
Fear,stimuli/17F_FE_O.BMP,stimuli/17F_FE_O.BMP,stimuli/16F_FE_O.BMP,stimuli/EmptyFrame.bmp,stimuli/RedFrame.bmp,1,Fear,Female,3,1,1.0,424.6566162109375,424.6566162109375,0.0,428.6566467285156,428.6566467285156,0.0,427.65484619140625,427.65484619140625,0.0,1.0,1.0,0.0,'1',0.8576244711875916,0.8576244711875916,0.0,102.0
Fear,stimuli/15F_FE_O.BMP,stimuli/18F_FE_O.BMP,stimuli/15F_FE_O.BMP,stimuli/EmptyFrame.bmp,stimuli/RedFrame.bmp,2,Fear,Female,3,1,1.0,428.6869812011719,428.6869812011719,0.0,432.6712951660156,432.6712951660156,0.0,431.6895751953125,431.6895751953125,0.0,1.0,1.0,0.0,'2',1.0201747417449951,1.0201747417449951,0.0,103.0
Fear,stimuli/21M_FE_O.BMP,stimuli/21M_FE_O.BMP,stimuli/22M_FE_O.BMP,stimuli/EmptyFrame.bmp,stimuli/RedFrame.bmp,1,Fear,Male,3,1,1.0,432.6932373046875,432.6932373046875,0.0,436.6808776855469,436.6808776855469,0.0,435.7035827636719,435.7035827636719,0.0,1.0,1.0,0.0,'1',0.7538561820983887,0.7538561820983887,0.0,104.0
Fear,stimuli/29M_FE_O.BMP,stimuli/30M_FE_O.BMP,stimuli/29M_FE_O.BMP,stimuli/EmptyFrame.bmp,stimuli/RedFrame.bmp,2,Fear,Male,3,1,1.0,436.7042236328125,436.7042236328125,0.0,440.693603515625,440.693603515625,0.0,439.7034606933594,439.7034606933594,0.0,1.0,1.0,0.0,'2',0.6994361877441406,0.6994361877441406,0.0,105.0
Fear,stimuli/31M_FE_O.BMP,stimuli/31M_FE_O.BMP,stimuli/38M_FE_O.BMP,stimuli/EmptyFrame.bmp,stimuli/RedFrame.bmp,1,Fear,Male,3,1,1.0,440.7165832519531,440.7165832519531,0.0,444.7037658691406,444.7037658691406,0.0,443.7231140136719,443.7231140136719,0.0,1.0,1.0,0.0,'1',0.7462425231933594,0.7462425231933594,0.0,106.0
Fear,stimuli/09F_FE_O.BMP,stimuli/07F_FE_O.BMP,stimuli/09F_FE_O.BMP,stimuli/EmptyFrame.bmp,stimuli/RedFrame.bmp,2,Fear,Female,3,1,1.0,444.73046875,444.73046875,0.0,448.7289123535156,448.7289123535156,0.0,447.73345947265625,447.73345947265625,0.0,1.0,1.0,0.0,'2',0.8658093810081482,0.8658093810081482,0.0,107.0
Fear,stimuli/11F_FE_O.BMP,stimuli/12F_FE_O.BMP,stimuli/11F_FE_O.BMP,stimuli/EmptyFrame.bmp,stimuli/RedFrame.bmp,2,Fear,Female,3,1,1.0,448.7491149902344,448.7491149902344,0.0,452.7458190917969,452.7458190917969,0.0,451.7510681152344,451.7510681152344,0.0,1.0,1.0,0.0,'2',0.870782196521759,0.870782196521759,0.0,108.0
Fear,stimuli/34M_FE_O.BMP,stimuli/34M_FE_O.BMP,stimuli/33M_FE_O.BMP,stimuli/EmptyFrame.bmp,stimuli/RedFrame.bmp,1,Fear,Male,3,1,1.0,452.7660827636719,452.7660827636719,0.0,456.7593688964844,456.7593688964844,0.0,455.76934814453125,455.76934814453125,0.0,1.0,1.0,0.0,'1',0.6614813804626465,0.6614813804626465,0.0,109.0

extraInfo
participant,014
session,002
date,2025_Jun_20_0923
expName,HaririTask_Ver1
psychopyVersion,3.0.1
frameRate,None
