TrialType,Top,Left,Right,EmptyFrame,SelectedFrame,Correct,Emotion,Gender,TrialLength,FixationLength,n,GCFaceStartTime_mean,GCFaceStartTime_raw,GCFaceStartTime_std,GCPostFaceFixationEndTime_mean,GCPostFaceFixationEndTime_raw,GCPostFaceFixationEndTime_std,GCPostFaceFixationStartTime_mean,GCPostFaceFixationStartTime_raw,GCPostFaceFixationStartTime_std,key_resp_trial.corr_mean,key_resp_trial.corr_raw,key_resp_trial.corr_std,key_resp_trial.keys_raw,key_resp_trial.rt_mean,key_resp_trial.rt_raw,key_resp_trial.rt_std,order
MatchFaces,stimuli/MatchFaces.bmp,stimuli/EmptyFace.bmp,stimuli/EmptyFace.bmp,stimuli/EmptyFrame.bmp,stimuli/EmptyFrame.bmp,Null,None,None,3,1,1.0,15.301177024841309,15.301177024841309,0.0,19.056467056274414,19.056467056274414,0.0,18.058250427246094,18.058250427246094,0.0,0.0,0.0,0.0,,,,,0.0
Fear,stimuli/23M_FE_O.BMP,stimuli/23M_FE_O.BMP,stimuli/24M_FE_O.BMP,stimuli/EmptyFrame.bmp,stimuli/RedFrame.bmp,1,Fear,Male,3,1,1.0,19.220382690429688,19.220382690429688,0.0,23.072551727294922,23.072551727294922,0.0,22.090295791625977,22.090295791625977,0.0,1.0,1.0,0.0,'1',1.2815041542053223,1.2815041542053223,0.0,1.0
Fear,stimuli/19F_FE_O.BMP,stimuli/18F_FE_O.BMP,stimuli/19F_FE_O.BMP,stimuli/EmptyFrame.bmp,stimuli/RedFrame.bmp,2,Fear,Female,3,1,1.0,23.10143280029297,23.10143280029297,0.0,27.095502853393555,27.095502853393555,0.0,26.101511001586914,26.101511001586914,0.0,1.0,1.0,0.0,'2',1.1880371570587158,1.1880371570587158,0.0,2.0
Fear,stimuli/17F_FE_O.BMP,stimuli/17F_FE_O.BMP,stimuli/16F_FE_O.BMP,stimuli/EmptyFrame.bmp,stimuli/RedFrame.bmp,1,Fear,Female,3,1,1.0,27.124845504760742,27.124845504760742,0.0,31.1164608001709,31.1164608001709,0.0,30.117212295532227,30.117212295532227,0.0,1.0,1.0,0.0,'1',1.1340000629425049,1.1340000629425049,0.0,3.0
Fear,stimuli/21M_FE_O.BMP,stimuli/21M_FE_O.BMP,stimuli/22M_FE_O.BMP,stimuli/EmptyFrame.bmp,stimuli/RedFrame.bmp,1,Fear,Male,3,1,1.0,31.14567756652832,31.14567756652832,0.0,35.13602828979492,35.13602828979492,0.0,34.14188766479492,34.14188766479492,0.0,1.0,1.0,0.0,'1',1.2160382270812988,1.2160382270812988,0.0,4.0
Fear,stimuli/09F_FE_O.BMP,stimuli/07F_FE_O.BMP,stimuli/09F_FE_O.BMP,stimuli/EmptyFrame.bmp,stimuli/RedFrame.bmp,2,Fear,Female,3,1,1.0,35.165184020996094,35.165184020996094,0.0,39.156856536865234,39.156856536865234,0.0,38.16350173950195,38.16350173950195,0.0,1.0,1.0,0.0,'2',1.37748384475708,1.37748384475708,0.0,5.0
Fear,stimuli/08F_FE_O.BMP,stimuli/13F_FE_O.BMP,stimuli/08F_FE_O.BMP,stimuli/EmptyFrame.bmp,stimuli/RedFrame.bmp,2,Fear,Female,3,1,1.0,39.18592834472656,39.18592834472656,0.0,43.17047882080078,43.17047882080078,0.0,42.18345260620117,42.18345260620117,0.0,1.0,1.0,0.0,'2',1.3399027585983276,1.3399027585983276,0.0,6.0
Fear,stimuli/07F_FE_O.BMP,stimuli/07F_FE_O.BMP,stimuli/14F_FE_O.BMP,stimuli/EmptyFrame.bmp,stimuli/RedFrame.bmp,1,Fear,Female,3,1,1.0,43.19440460205078,43.19440460205078,0.0,47.188072204589844,47.188072204589844,0.0,46.20085906982422,46.20085906982422,0.0,1.0,1.0,0.0,'1',1.384641170501709,1.384641170501709,0.0,7.0
Fear,stimuli/26M_FE_O.BMP,stimuli/26M_FE_O.BMP,stimuli/28M_FE_O.BMP,stimuli/EmptyFrame.bmp,stimuli/RedFrame.bmp,1,Fear,Male,3,1,1.0,47.213294982910156,47.213294982910156,0.0,51.2079963684082,51.2079963684082,0.0,50.22089385986328,50.22089385986328,0.0,1.0,1.0,0.0,'1',1.3467679023742676,1.3467679023742676,0.0,8.0
Fear,stimuli/10F_FE_O.BMP,stimuli/11F_FE_O.BMP,stimuli/10F_FE_O.BMP,stimuli/EmptyFrame.bmp,stimuli/RedFrame.bmp,2,Fear,Female,3,1,1.0,51.23684310913086,51.23684310913086,0.0,55.222808837890625,55.222808837890625,0.0,54.24284744262695,54.24284744262695,0.0,1.0,1.0,0.0,'2',1.2505762577056885,1.2505762577056885,0.0,9.0
Fear,stimuli/29M_FE_O.BMP,stimuli/30M_FE_O.BMP,stimuli/29M_FE_O.BMP,stimuli/EmptyFrame.bmp,stimuli/RedFrame.bmp,2,Fear,Male,3,1,1.0,55.249671936035156,55.249671936035156,0.0,59.24400329589844,59.24400329589844,0.0,58.25079345703125,58.25079345703125,0.0,1.0,1.0,0.0,'2',1.0378897190093994,1.0378897190093994,0.0,10.0
MatchFaces,stimuli/MatchFaces.bmp,stimuli/EmptyFace.bmp,stimuli/EmptyFace.bmp,stimuli/EmptyFrame.bmp,stimuli/EmptyFrame.bmp,Null,None,None,3,1,1.0,59.39695358276367,59.39695358276367,0.0,63.248680114746094,63.248680114746094,0.0,62.259605407714844,62.259605407714844,0.0,0.0,0.0,0.0,,,,,11.0
Neutral,stimuli/07F_NE_C.BMP,stimuli/07F_NE_C.BMP,stimuli/14F_NE_C.BMP,stimuli/EmptyFrame.bmp,stimuli/RedFrame.bmp,1,Neutral,Female,3,1,1.0,63.30558395385742,63.30558395385742,0.0,67.26142120361328,67.26142120361328,0.0,66.28102111816406,66.28102111816406,0.0,1.0,1.0,0.0,'1',0.9381343722343445,0.9381343722343445,0.0,12.0
Neutral,stimuli/25M_NE_C.BMP,stimuli/29M_NE_C.BMP,stimuli/25M_NE_C.BMP,stimuli/EmptyFrame.bmp,stimuli/RedFrame.bmp,2,Neutral,Male,3,1,1.0,67.29058837890625,67.29058837890625,0.0,71.27281951904297,71.27281951904297,0.0,70.28630828857422,70.28630828857422,0.0,1.0,1.0,0.0,'2',1.0492095947265625,1.0492095947265625,0.0,13.0
Neutral,stimuli/26M_NE_C.BMP,stimuli/26M_NE_C.BMP,stimuli/28M_NE_C.BMP,stimuli/EmptyFrame.bmp,stimuli/RedFrame.bmp,1,Neutral,Male,3,1,1.0,71.30818176269531,71.30818176269531,0.0,75.28218078613281,75.28218078613281,0.0,74.2977066040039,74.2977066040039,0.0,1.0,1.0,0.0,'1',1.1912808418273926,1.1912808418273926,0.0,14.0
Neutral,stimuli/08F_NE_C.BMP,stimuli/13F_NE_C.BMP,stimuli/08F_NE_C.BMP,stimuli/EmptyFrame.bmp,stimuli/RedFrame.bmp,2,Neutral,Female,3,1,1.0,75.30880737304688,75.30880737304688,0.0,79.30107879638672,79.30107879638672,0.0,78.32047271728516,78.32047271728516,0.0,1.0,1.0,0.0,'2',1.030922293663025,1.030922293663025,0.0,15.0
Neutral,stimuli/09F_NE_C.BMP,stimuli/09F_NE_C.BMP,stimuli/12F_NE_C.BMP,stimuli/EmptyFrame.bmp,stimuli/RedFrame.bmp,1,Neutral,Female,3,1,1.0,79.3265151977539,79.3265151977539,0.0,83.31417846679688,83.31417846679688,0.0,82.33363342285156,82.33363342285156,0.0,1.0,1.0,0.0,'1',0.898966908454895,0.898966908454895,0.0,16.0
Neutral,stimuli/27M_NE_C.BMP,stimuli/26M_NE_C.BMP,stimuli/27M_NE_C.BMP,stimuli/EmptyFrame.bmp,stimuli/RedFrame.bmp,2,Neutral,Male,3,1,1.0,83.34135437011719,83.34135437011719,0.0,87.32447052001953,87.32447052001953,0.0,86.34205627441406,86.34205627441406,0.0,1.0,1.0,0.0,'2',1.1377180814743042,1.1377180814743042,0.0,17.0
Neutral,stimuli/28M_NE_C.BMP,stimuli/28M_NE_C.BMP,stimuli/25M_NE_C.BMP,stimuli/EmptyFrame.bmp,stimuli/RedFrame.bmp,1,Neutral,Male,3,1,1.0,87.34858703613281,87.34858703613281,0.0,91.3437728881836,91.3437728881836,0.0,90.36101531982422,90.36101531982422,0.0,1.0,1.0,0.0,'1',1.0553549528121948,1.0553549528121948,0.0,18.0
Neutral,stimuli/10F_NE_C.BMP,stimuli/11F_NE_C.BMP,stimuli/10F_NE_C.BMP,stimuli/EmptyFrame.bmp,stimuli/RedFrame.bmp,2,Neutral,Female,3,1,1.0,91.37296295166016,91.37296295166016,0.0,95.36582946777344,95.36582946777344,0.0,94.37511444091797,94.37511444091797,0.0,1.0,1.0,0.0,'2',1.0019581317901611,1.0019581317901611,0.0,19.0
Neutral,stimuli/29M_NE_C.BMP,stimuli/29M_NE_C.BMP,stimuli/24M_NE_C.BMP,stimuli/EmptyFrame.bmp,stimuli/RedFrame.bmp,1,Neutral,Male,3,1,1.0,95.39325714111328,95.39325714111328,0.0,99.38465118408203,99.38465118408203,0.0,98.39509582519531,98.39509582519531,0.0,1.0,1.0,0.0,'1',1.2176539897918701,1.2176539897918701,0.0,20.0
Neutral,stimuli/11F_NE_C.BMP,stimuli/10F_NE_C.BMP,stimuli/11F_NE_C.BMP,stimuli/EmptyFrame.bmp,stimuli/RedFrame.bmp,2,Neutral,Female,3,1,1.0,99.40834045410156,99.40834045410156,0.0,103.39616394042969,103.39616394042969,0.0,102.40726470947266,102.40726470947266,0.0,1.0,1.0,0.0,'2',1.0625288486480713,1.0625288486480713,0.0,21.0
MatchShape,stimuli/MatchShapes.bmp,stimuli/EmptyFace.bmp,stimuli/EmptyFace.bmp,stimuli/EmptyFrame.bmp,stimuli/EmptyFrame.bmp,Null,None,None,3,1,1.0,103.42381286621094,103.42381286621094,0.0,107.4039306640625,107.4039306640625,0.0,106.40861511230469,106.40861511230469,0.0,0.0,0.0,0.0,,,,,22.0
Shape,stimuli/circle.bmp,stimuli/vertical.bmp,stimuli/circle.bmp,stimuli/EmptyFrame.bmp,stimuli/RedFrame.bmp,2,Shape,None,3,1,1.0,107.4497299194336,107.4497299194336,0.0,111.42021942138672,111.42021942138672,0.0,110.43190002441406,110.43190002441406,0.0,1.0,1.0,0.0,'2',1.0443352460861206,1.0443352460861206,0.0,23.0
Shape,stimuli/horizontal.bmp,stimuli/circle.bmp,stimuli/horizontal.bmp,stimuli/EmptyFrame.bmp,stimuli/RedFrame.bmp,2,Shape,None,3,1,1.0,111.44744873046875,111.44744873046875,0.0,115.43585968017578,115.43585968017578,0.0,114.4478530883789,114.4478530883789,0.0,1.0,1.0,0.0,'2',1.0287468433380127,1.0287468433380127,0.0,24.0
Shape,stimuli/circle.bmp,stimuli/vertical.bmp,stimuli/circle.bmp,stimuli/EmptyFrame.bmp,stimuli/RedFrame.bmp,2,Shape,None,3,1,1.0,115.4590835571289,115.4590835571289,0.0,119.45091247558594,119.45091247558594,0.0,118.45950317382812,118.45950317382812,0.0,1.0,1.0,0.0,'2',1.160714864730835,1.160714864730835,0.0,25.0
Shape,stimuli/vertical.bmp,stimuli/circle.bmp,stimuli/vertical.bmp,stimuli/EmptyFrame.bmp,stimuli/RedFrame.bmp,2,Shape,None,3,1,1.0,119.47550201416016,119.47550201416016,0.0,123.46981811523438,123.46981811523438,0.0,122.47782897949219,122.47782897949219,0.0,1.0,1.0,0.0,'2',1.011915922164917,1.011915922164917,0.0,26.0
Shape,stimuli/vertical.bmp,stimuli/horizontal.bmp,stimuli/vertical.bmp,stimuli/EmptyFrame.bmp,stimuli/RedFrame.bmp,2,Shape,None,3,1,1.0,123.49247741699219,123.49247741699219,0.0,127.48517608642578,127.48517608642578,0.0,126.4993667602539,126.4993667602539,0.0,1.0,1.0,0.0,'2',0.914706826210022,0.914706826210022,0.0,27.0
Shape,stimuli/horizontal.bmp,stimuli/horizontal.bmp,stimuli/vertical.bmp,stimuli/EmptyFrame.bmp,stimuli/RedFrame.bmp,1,Shape,None,3,1,1.0,127.50576782226562,127.50576782226562,0.0,131.50282287597656,131.50282287597656,0.0,130.50831604003906,130.50831604003906,0.0,1.0,1.0,0.0,'1',1.1072605848312378,1.1072605848312378,0.0,28.0
Shape,stimuli/horizontal.bmp,stimuli/circle.bmp,stimuli/horizontal.bmp,stimuli/EmptyFrame.bmp,stimuli/RedFrame.bmp,2,Shape,None,3,1,1.0,131.5242156982422,131.5242156982422,0.0,135.51316833496094,135.51316833496094,0.0,134.53134155273438,134.53134155273438,0.0,1.0,1.0,0.0,'2',0.9307894110679626,0.9307894110679626,0.0,29.0
Shape,stimuli/circle.bmp,stimuli/circle.bmp,stimuli/vertical.bmp,stimuli/EmptyFrame.bmp,stimuli/RedFrame.bmp,1,Shape,None,3,1,1.0,135.5364990234375,135.5364990234375,0.0,139.52468872070312,139.52468872070312,0.0,138.5460662841797,138.5460662841797,0.0,1.0,1.0,0.0,'1',0.8518187999725342,0.8518187999725342,0.0,30.0
Shape,stimuli/vertical.bmp,stimuli/horizontal.bmp,stimuli/vertical.bmp,stimuli/EmptyFrame.bmp,stimuli/RedFrame.bmp,2,Shape,None,3,1,1.0,139.54638671875,139.54638671875,0.0,143.5454864501953,143.5454864501953,0.0,142.56080627441406,142.56080627441406,0.0,1.0,1.0,0.0,'2',0.8934841156005859,0.8934841156005859,0.0,31.0
Shape,stimuli/vertical.bmp,stimuli/vertical.bmp,stimuli/horizontal.bmp,stimuli/EmptyFrame.bmp,stimuli/RedFrame.bmp,1,Shape,None,3,1,1.0,143.56922912597656,143.56922912597656,0.0,147.56643676757812,147.56643676757812,0.0,146.56761169433594,146.56761169433594,0.0,1.0,1.0,0.0,'1',0.9466103911399841,0.9466103911399841,0.0,32.0
MatchFaces,stimuli/MatchFaces.bmp,stimuli/EmptyFace.bmp,stimuli/EmptyFace.bmp,stimuli/EmptyFrame.bmp,stimuli/EmptyFrame.bmp,Null,None,None,3,1,1.0,147.76220703125,147.76220703125,0.0,151.57583618164062,151.57583618164062,0.0,150.58596801757812,150.58596801757812,0.0,0.0,0.0,0.0,,,,,33.0
Anger,stimuli/20M_AN_O.BMP,stimuli/34M_AN_O.BMP,stimuli/20M_AN_O.BMP,stimuli/EmptyFrame.bmp,stimuli/RedFrame.bmp,2,Anger,Male,3,1,1.0,151.6317901611328,151.6317901611328,0.0,155.59661865234375,155.59661865234375,0.0,154.60630798339844,154.60630798339844,0.0,1.0,1.0,0.0,'2',1.0709140300750732,1.0709140300750732,0.0,34.0
Anger,stimuli/01F_AN_O.bmp,stimuli/19F_AN_O.BMP,stimuli/01F_AN_O.bmp,stimuli/EmptyFrame.bmp,stimuli/RedFrame.bmp,2,Anger,Female,3,1,1.0,155.62660217285156,155.62660217285156,0.0,159.6091766357422,159.6091766357422,0.0,158.63320922851562,158.63320922851562,0.0,1.0,1.0,0.0,'2',0.9598841071128845,0.9598841071128845,0.0,35.0
Anger,stimuli/06F_AN_O.bmp,stimuli/15F_AN_O.BMP,stimuli/06F_AN_O.bmp,stimuli/EmptyFrame.bmp,stimuli/RedFrame.bmp,2,Anger,Female,3,1,1.0,159.6416778564453,159.6416778564453,0.0,163.62545776367188,163.62545776367188,0.0,162.63890075683594,162.63890075683594,0.0,1.0,1.0,0.0,'2',1.2968189716339111,1.2968189716339111,0.0,36.0
Anger,stimuli/42M_AN_O.BMP,stimuli/42M_AN_O.BMP,stimuli/43M_AN_O.BMP,stimuli/EmptyFrame.bmp,stimuli/RedFrame.bmp,1,Anger,Male,3,1,1.0,163.6549530029297,163.6549530029297,0.0,167.64955139160156,167.64955139160156,0.0,166.65872192382812,166.65872192382812,0.0,1.0,1.0,0.0,'1',1.0829572677612305,1.0829572677612305,0.0,37.0
Anger,stimuli/40M_AN_O.BMP,stimuli/41M_AN_O.BMP,stimuli/40M_AN_O.BMP,stimuli/EmptyFrame.bmp,stimuli/RedFrame.bmp,2,Anger,Male,3,1,1.0,167.67733764648438,167.67733764648438,0.0,171.66482543945312,171.66482543945312,0.0,170.68092346191406,170.68092346191406,0.0,1.0,1.0,0.0,'2',1.1819243431091309,1.1819243431091309,0.0,38.0
Anger,stimuli/08F_AN_O.BMP,stimuli/08F_AN_O.BMP,stimuli/13F_AN_O.BMP,stimuli/EmptyFrame.bmp,stimuli/RedFrame.bmp,1,Anger,Female,3,1,1.0,171.6905059814453,171.6905059814453,0.0,175.6796112060547,175.6796112060547,0.0,174.68905639648438,174.68905639648438,0.0,1.0,1.0,0.0,'1',1.2893508672714233,1.2893508672714233,0.0,39.0
Anger,stimuli/09F_AN_O.BMP,stimuli/12F_AN_O.BMP,stimuli/09F_AN_O.BMP,stimuli/EmptyFrame.bmp,stimuli/RedFrame.bmp,2,Anger,Female,3,1,1.0,175.7103271484375,175.7103271484375,0.0,179.70037841796875,179.70037841796875,0.0,178.71495056152344,178.71495056152344,0.0,1.0,1.0,0.0,'2',1.0628327131271362,1.0628327131271362,0.0,40.0
Anger,stimuli/34M_AN_O.BMP,stimuli/35M_AN_O.BMP,stimuli/34M_AN_O.BMP,stimuli/EmptyFrame.bmp,stimuli/RedFrame.bmp,2,Anger,Male,3,1,1.0,179.72457885742188,179.72457885742188,0.0,183.72044372558594,183.72044372558594,0.0,182.73101806640625,182.73101806640625,0.0,1.0,1.0,0.0,'2',1.1340129375457764,1.1340129375457764,0.0,41.0
Anger,stimuli/24M_AN_O.BMP,stimuli/24M_AN_O.BMP,stimuli/30M_AN_O.BMP,stimuli/EmptyFrame.bmp,stimuli/RedFrame.bmp,1,Anger,Male,3,1,1.0,183.75006103515625,183.75006103515625,0.0,187.73036193847656,187.73036193847656,0.0,186.74594116210938,186.74594116210938,0.0,1.0,1.0,0.0,'1',1.2344839572906494,1.2344839572906494,0.0,42.0
Anger,stimuli/03F_AN_O.bmp,stimuli/03F_AN_O.bmp,stimuli/17F_AN_O.BMP,stimuli/EmptyFrame.bmp,stimuli/RedFrame.bmp,1,Anger,Female,3,1,1.0,187.76193237304688,187.76193237304688,0.0,191.7410888671875,191.7410888671875,0.0,190.76220703125,190.76220703125,0.0,1.0,1.0,0.0,'1',0.8584592938423157,0.8584592938423157,0.0,43.0
MatchFaces,stimuli/MatchFaces.bmp,stimuli/EmptyFace.bmp,stimuli/EmptyFace.bmp,stimuli/EmptyFrame.bmp,stimuli/EmptyFrame.bmp,Null,None,None,3,1,1.0,191.93399047851562,191.93399047851562,0.0,195.75254821777344,195.75254821777344,0.0,194.7586212158203,194.7586212158203,0.0,0.0,0.0,0.0,,,,,44.0
Happy,stimuli/06F_HA_O.bmp,stimuli/07F_HA_O.BMP,stimuli/06F_HA_O.bmp,stimuli/EmptyFrame.bmp,stimuli/RedFrame.bmp,2,Happy,Female,3,1,1.0,195.80694580078125,195.80694580078125,0.0,199.7694549560547,199.7694549560547,0.0,198.78280639648438,198.78280639648438,0.0,1.0,1.0,0.0,'2',0.8070791959762573,0.8070791959762573,0.0,45.0
Happy,stimuli/13F_HA_O.BMP,stimuli/13F_HA_O.BMP,stimuli/12F_HA_O.BMP,stimuli/EmptyFrame.bmp,stimuli/RedFrame.bmp,1,Happy,Female,3,1,1.0,199.79664611816406,199.79664611816406,0.0,203.78025817871094,203.78025817871094,0.0,202.79737854003906,202.79737854003906,0.0,1.0,1.0,0.0,'1',0.7615177035331726,0.7615177035331726,0.0,46.0
Happy,stimuli/41M_HA_O.BMP,stimuli/41M_HA_O.BMP,stimuli/40M_HA_O.BMP,stimuli/EmptyFrame.bmp,stimuli/RedFrame.bmp,1,Happy,Male,3,1,1.0,203.80848693847656,203.80848693847656,0.0,207.79281616210938,207.79281616210938,0.0,206.81202697753906,206.81202697753906,0.0,1.0,1.0,0.0,'1',0.786478579044342,0.786478579044342,0.0,47.0
Happy,stimuli/03F_HA_O.bmp,stimuli/05F_HA_O.bmp,stimuli/03F_HA_O.bmp,stimuli/EmptyFrame.bmp,stimuli/RedFrame.bmp,2,Happy,Female,3,1,1.0,207.82350158691406,207.82350158691406,0.0,211.81106567382812,211.81106567382812,0.0,210.81997680664062,210.81997680664062,0.0,1.0,1.0,0.0,'2',1.243044376373291,1.243044376373291,0.0,48.0
Happy,stimuli/24M_HA_O.BMP,stimuli/24M_HA_O.BMP,stimuli/25M_HA_O.BMP,stimuli/EmptyFrame.bmp,stimuli/RedFrame.bmp,1,Happy,Male,3,1,1.0,211.8418426513672,211.8418426513672,0.0,215.821533203125,215.821533203125,0.0,214.83795166015625,214.83795166015625,0.0,1.0,1.0,0.0,'1',1.1281747817993164,1.1281747817993164,0.0,49.0
Happy,stimuli/19F_HA_O.BMP,stimuli/19F_HA_O.BMP,stimuli/18F_HA_O.BMP,stimuli/EmptyFrame.bmp,stimuli/RedFrame.bmp,1,Happy,Female,3,1,1.0,215.85092163085938,215.85092163085938,0.0,219.84022521972656,219.84022521972656,0.0,218.84567260742188,218.84567260742188,0.0,1.0,1.0,0.0,'1',1.3815349340438843,1.3815349340438843,0.0,50.0
Happy,stimuli/01F_HA_O.bmp,stimuli/01F_HA_O.bmp,stimuli/02F_HA_O.bmp,stimuli/EmptyFrame.bmp,stimuli/RedFrame.bmp,1,Happy,Female,3,1,1.0,219.87213134765625,219.87213134765625,0.0,223.85653686523438,223.85653686523438,0.0,222.8711700439453,222.8711700439453,0.0,1.0,1.0,0.0,'1',1.1326700448989868,1.1326700448989868,0.0,51.0
Happy,stimuli/22M_HA_O.BMP,stimuli/23M_HA_O.BMP,stimuli/22M_HA_O.BMP,stimuli/EmptyFrame.bmp,stimuli/RedFrame.bmp,2,Happy,Male,3,1,1.0,223.8861541748047,223.8861541748047,0.0,227.87205505371094,227.87205505371094,0.0,226.8872833251953,226.8872833251953,0.0,1.0,1.0,0.0,'2',1.354610562324524,1.354610562324524,0.0,52.0
Happy,stimuli/35M_HA_O.BMP,stimuli/34M_HA_O.BMP,stimuli/35M_HA_O.BMP,stimuli/EmptyFrame.bmp,stimuli/RedFrame.bmp,2,Happy,Male,3,1,1.0,227.89974975585938,227.89974975585938,0.0,231.8885955810547,231.8885955810547,0.0,230.89511108398438,230.89511108398438,0.0,1.0,1.0,0.0,'2',1.5047372579574585,1.5047372579574585,0.0,53.0
Happy,stimuli/39M_HA_O.BMP,stimuli/38M_HA_O.BMP,stimuli/39M_HA_O.BMP,stimuli/EmptyFrame.bmp,stimuli/RedFrame.bmp,2,Happy,Male,3,1,1.0,231.91390991210938,231.91390991210938,0.0,235.9010772705078,235.9010772705078,0.0,234.91983032226562,234.91983032226562,0.0,1.0,1.0,0.0,'2',1.278844952583313,1.278844952583313,0.0,54.0
Match Shape,stimuli/MatchShapes.bmp,stimuli/EmptyFace.bmp,stimuli/EmptyFace.bmp,stimuli/EmptyFrame.bmp,stimuli/EmptyFrame.bmp,Null,None,None,3,1,1.0,235.92898559570312,235.92898559570312,0.0,239.90565490722656,239.90565490722656,0.0,238.91700744628906,238.91700744628906,0.0,0.0,0.0,0.0,,,,,55.0
Shape,stimuli/horizontal.bmp,stimuli/horizontal.bmp,stimuli/vertical.bmp,stimuli/EmptyFrame.bmp,stimuli/RedFrame.bmp,1,Shape,None,3,1,1.0,239.93780517578125,239.93780517578125,0.0,243.923828125,243.923828125,0.0,242.93348693847656,242.93348693847656,0.0,1.0,1.0,0.0,'1',0.9590687155723572,0.9590687155723572,0.0,56.0
Shape,stimuli/horizontal.bmp,stimuli/horizontal.bmp,stimuli/circle.bmp,stimuli/EmptyFrame.bmp,stimuli/RedFrame.bmp,1,Shape,None,3,1,1.0,243.94708251953125,243.94708251953125,0.0,247.94503784179688,247.94503784179688,0.0,246.9564971923828,246.9564971923828,0.0,1.0,1.0,0.0,'1',0.8228141069412231,0.8228141069412231,0.0,57.0
Shape,stimuli/circle.bmp,stimuli/vertical.bmp,stimuli/circle.bmp,stimuli/EmptyFrame.bmp,stimuli/RedFrame.bmp,2,Shape,None,3,1,1.0,247.9700469970703,247.9700469970703,0.0,251.9561004638672,251.9561004638672,0.0,250.9769744873047,250.9769744873047,0.0,1.0,1.0,0.0,'2',0.9544556140899658,0.9544556140899658,0.0,58.0
Shape,stimuli/vertical.bmp,stimuli/vertical.bmp,stimuli/circle.bmp,stimuli/EmptyFrame.bmp,stimuli/RedFrame.bmp,1,Shape,None,3,1,1.0,251.97950744628906,251.97950744628906,0.0,255.97215270996094,255.97215270996094,0.0,254.98165893554688,254.98165893554688,0.0,1.0,1.0,0.0,'1',0.6437370777130127,0.6437370777130127,0.0,59.0
Shape,stimuli/horizontal.bmp,stimuli/horizontal.bmp,stimuli/circle.bmp,stimuli/EmptyFrame.bmp,stimuli/RedFrame.bmp,1,Shape,None,3,1,1.0,255.99789428710938,255.99789428710938,0.0,259.9874267578125,259.9874267578125,0.0,259.00067138671875,259.00067138671875,0.0,1.0,1.0,0.0,'1',0.6534870266914368,0.6534870266914368,0.0,60.0
Shape,stimuli/vertical.bmp,stimuli/vertical.bmp,stimuli/circle.bmp,stimuli/EmptyFrame.bmp,stimuli/RedFrame.bmp,1,Shape,None,3,1,1.0,260.0089416503906,260.0089416503906,0.0,264.0033264160156,264.0033264160156,0.0,263.0171813964844,263.0171813964844,0.0,1.0,1.0,0.0,'1',0.5787774920463562,0.5787774920463562,0.0,61.0
Shape,stimuli/horizontal.bmp,stimuli/circle.bmp,stimuli/horizontal.bmp,stimuli/EmptyFrame.bmp,stimuli/RedFrame.bmp,2,Shape,None,3,1,1.0,264.0257873535156,264.0257873535156,0.0,268.0268859863281,268.0268859863281,0.0,267.0244445800781,267.0244445800781,0.0,1.0,1.0,0.0,'2',0.678511917591095,0.678511917591095,0.0,62.0
Shape,stimuli/circle.bmp,stimuli/circle.bmp,stimuli/horizontal.bmp,stimuli/EmptyFrame.bmp,stimuli/RedFrame.bmp,1,Shape,None,3,1,1.0,268.0522155761719,268.0522155761719,0.0,272.04583740234375,272.04583740234375,0.0,271.0556335449219,271.0556335449219,0.0,1.0,1.0,0.0,'1',0.7243036031723022,0.7243036031723022,0.0,63.0
Shape,stimuli/circle.bmp,stimuli/horizontal.bmp,stimuli/circle.bmp,stimuli/EmptyFrame.bmp,stimuli/RedFrame.bmp,2,Shape,None,3,1,1.0,272.0694580078125,272.0694580078125,0.0,276.06396484375,276.06396484375,0.0,275.0726013183594,275.0726013183594,0.0,1.0,1.0,0.0,'2',0.7488601207733154,0.7488601207733154,0.0,64.0
Shape,stimuli/vertical.bmp,stimuli/vertical.bmp,stimuli/horizontal.bmp,stimuli/EmptyFrame.bmp,stimuli/RedFrame.bmp,1,Shape,None,3,1,1.0,276.0869140625,276.0869140625,0.0,280.0800476074219,280.0800476074219,0.0,279.0837707519531,279.0837707519531,0.0,1.0,1.0,0.0,'1',0.7246636152267456,0.7246636152267456,0.0,65.0
MatchFaces,stimuli/MatchFaces.bmp,stimuli/EmptyFace.bmp,stimuli/EmptyFace.bmp,stimuli/EmptyFrame.bmp,stimuli/EmptyFrame.bmp,Null,None,None,3,1,1.0,280.2580261230469,280.2580261230469,0.0,284.0837707519531,284.0837707519531,0.0,283.0892333984375,283.0892333984375,0.0,0.0,0.0,0.0,,,,,66.0
Neutral,stimuli/20M_NE_C.BMP,stimuli/21M_NE_C.BMP,stimuli/20M_NE_C.BMP,stimuli/EmptyFrame.bmp,stimuli/RedFrame.bmp,2,Neutral,Male,3,1,1.0,284.1372375488281,284.1372375488281,0.0,288.0997314453125,288.0997314453125,0.0,287.1068420410156,287.1068420410156,0.0,1.0,1.0,0.0,'2',1.2023526430130005,1.2023526430130005,0.0,67.0
Neutral,stimuli/01F_NE_C.bmp,stimuli/01F_NE_C.bmp,stimuli/02F_NE_C.bmp,stimuli/EmptyFrame.bmp,stimuli/RedFrame.bmp,1,Neutral,Female,3,1,1.0,288.12841796875,288.12841796875,0.0,292.1203918457031,292.1203918457031,0.0,291.1250305175781,291.1250305175781,0.0,1.0,1.0,0.0,'1',0.8230211734771729,0.8230211734771729,0.0,68.0
Neutral,stimuli/22M_NE_C.BMP,stimuli/23M_NE_C.BMP,stimuli/22M_NE_C.BMP,stimuli/EmptyFrame.bmp,stimuli/RedFrame.bmp,2,Neutral,Male,3,1,1.0,292.15032958984375,292.15032958984375,0.0,296.13702392578125,296.13702392578125,0.0,295.1541442871094,295.1541442871094,0.0,1.0,1.0,0.0,'2',1.2239446640014648,1.2239446640014648,0.0,69.0
Neutral,stimuli/24M_NE_C.BMP,stimuli/24M_NE_C.BMP,stimuli/25M_NE_C.BMP,stimuli/EmptyFrame.bmp,stimuli/RedFrame.bmp,1,Neutral,Male,3,1,1.0,296.1566162109375,296.1566162109375,0.0,300.1552429199219,300.1552429199219,0.0,299.16546630859375,299.16546630859375,0.0,1.0,1.0,0.0,'1',0.8967093229293823,0.8967093229293823,0.0,70.0
Neutral,stimuli/03F_NE_C.bmp,stimuli/05F_NE_C.bmp,stimuli/03F_NE_C.bmp,stimuli/EmptyFrame.bmp,stimuli/RedFrame.bmp,2,Neutral,Female,3,1,1.0,300.18402099609375,300.18402099609375,0.0,304.1655578613281,304.1655578613281,0.0,303.1863708496094,303.1863708496094,0.0,1.0,1.0,0.0,'2',1.2750189304351807,1.2750189304351807,0.0,71.0
Neutral,stimuli/26M_NE_C.BMP,stimuli/26M_NE_C.BMP,stimuli/27M_NE_C.BMP,stimuli/EmptyFrame.bmp,stimuli/RedFrame.bmp,1,Neutral,Male,3,1,1.0,304.18853759765625,304.18853759765625,0.0,308.1768798828125,308.1768798828125,0.0,307.19537353515625,307.19537353515625,0.0,1.0,1.0,0.0,'1',0.802020788192749,0.802020788192749,0.0,72.0
Neutral,stimuli/06F_NE_C.bmp,stimuli/07F_NE_C.BMP,stimuli/06F_NE_C.bmp,stimuli/EmptyFrame.bmp,stimuli/RedFrame.bmp,2,Neutral,Female,3,1,1.0,308.2029113769531,308.2029113769531,0.0,312.191162109375,312.191162109375,0.0,311.2025451660156,311.2025451660156,0.0,1.0,1.0,0.0,'2',1.050702452659607,1.050702452659607,0.0,73.0
Neutral,stimuli/08F_NE_C.BMP,stimuli/08F_NE_C.BMP,stimuli/09F_NE_C.BMP,stimuli/EmptyFrame.bmp,stimuli/RedFrame.bmp,1,Neutral,Female,3,1,1.0,312.216796875,312.216796875,0.0,316.2102966308594,316.2102966308594,0.0,315.2196350097656,315.2196350097656,0.0,1.0,1.0,0.0,'1',0.9860863089561462,0.9860863089561462,0.0,74.0
Neutral,stimuli/28M_NE_C.BMP,stimuli/29M_NE_C.BMP,stimuli/28M_NE_C.BMP,stimuli/EmptyFrame.bmp,stimuli/RedFrame.bmp,2,Neutral,Male,3,1,1.0,316.2329406738281,316.2329406738281,0.0,320.2266540527344,320.2266540527344,0.0,319.2412414550781,319.2412414550781,0.0,1.0,1.0,0.0,'2',1.1903997659683228,1.1903997659683228,0.0,75.0
Neutral,stimuli/10F_NE_C.BMP,stimuli/10F_NE_C.BMP,stimuli/06F_NE_C.bmp,stimuli/EmptyFrame.bmp,stimuli/RedFrame.bmp,1,Neutral,Female,3,1,1.0,320.2552795410156,320.2552795410156,0.0,324.24468994140625,324.24468994140625,0.0,323.2556457519531,323.2556457519531,0.0,1.0,1.0,0.0,'1',0.7895658016204834,0.7895658016204834,0.0,76.0
MatchFaces,stimuli/MatchFaces.bmp,stimuli/EmptyFace.bmp,stimuli/EmptyFace.bmp,stimuli/EmptyFrame.bmp,stimuli/EmptyFrame.bmp,Null,None,None,3,1,1.0,324.4300537109375,324.4300537109375,0.0,328.25054931640625,328.25054931640625,0.0,327.2609558105469,327.2609558105469,0.0,0.0,0.0,0.0,,,,,77.0
Happy,stimuli/28M_HA_O.BMP,stimuli/29M_HA_O.BMP,stimuli/28M_HA_O.BMP,stimuli/EmptyFrame.bmp,stimuli/RedFrame.bmp,2,Happy,Male,3,1,1.0,328.3072814941406,328.3072814941406,0.0,332.2705383300781,332.2705383300781,0.0,331.27386474609375,331.27386474609375,0.0,1.0,1.0,0.0,'2',1.0276962518692017,1.0276962518692017,0.0,78.0
Happy,stimuli/10F_HA_O.BMP,stimuli/10F_HA_O.BMP,stimuli/06F_HA_O.bmp,stimuli/EmptyFrame.bmp,stimuli/RedFrame.bmp,1,Happy,Female,3,1,1.0,332.29852294921875,332.29852294921875,0.0,336.28704833984375,336.28704833984375,0.0,335.31231689453125,335.31231689453125,0.0,1.0,1.0,0.0,'1',1.0278831720352173,1.0278831720352173,0.0,79.0
Happy,stimuli/26M_HA_O.BMP,stimuli/26M_HA_O.BMP,stimuli/27M_HA_O.BMP,stimuli/EmptyFrame.bmp,stimuli/RedFrame.bmp,1,Happy,Male,3,1,1.0,336.3171081542969,336.3171081542969,0.0,340.2982482910156,340.2982482910156,0.0,339.3126525878906,339.3126525878906,0.0,1.0,1.0,0.0,'1',0.8227807283401489,0.8227807283401489,0.0,80.0
Happy,stimuli/20M_HA_O.BMP,stimuli/21M_HA_O.BMP,stimuli/20M_HA_O.BMP,stimuli/EmptyFrame.bmp,stimuli/RedFrame.bmp,2,Happy,Male,3,1,1.0,340.32684326171875,340.32684326171875,0.0,344.3163146972656,344.3163146972656,0.0,343.32183837890625,343.32183837890625,0.0,1.0,1.0,0.0,'2',1.1473588943481445,1.1473588943481445,0.0,81.0
Happy,stimuli/37M_HA_O.BMP,stimuli/37M_HA_O.BMP,stimuli/36M_HA_O.BMP,stimuli/EmptyFrame.bmp,stimuli/RedFrame.bmp,1,Happy,Male,3,1,1.0,344.3440856933594,344.3440856933594,0.0,348.3258361816406,348.3258361816406,0.0,347.3393859863281,347.3393859863281,0.0,1.0,1.0,0.0,'1',0.77724289894104,0.77724289894104,0.0,82.0
Happy,stimuli/43M_HA_O.BMP,stimuli/42M_HA_O.BMP,stimuli/43M_HA_O.BMP,stimuli/EmptyFrame.bmp,stimuli/RedFrame.bmp,2,Happy,Male,3,1,1.0,348.3540344238281,348.3540344238281,0.0,352.3443908691406,352.3443908691406,0.0,351.34881591796875,351.34881591796875,0.0,1.0,1.0,0.0,'2',0.7006728053092957,0.7006728053092957,0.0,83.0
Happy,stimuli/11F_HA_O.BMP,stimuli/10F_HA_O.BMP,stimuli/11F_HA_O.BMP,stimuli/EmptyFrame.bmp,stimuli/RedFrame.bmp,2,Happy,Female,3,1,1.0,352.370361328125,352.370361328125,0.0,356.367431640625,356.367431640625,0.0,355.38140869140625,355.38140869140625,0.0,1.0,1.0,0.0,'2',0.7567533850669861,0.7567533850669861,0.0,84.0
Happy,stimuli/17F_HA_O.BMP,stimuli/16F_HA_O.BMP,stimuli/17F_HA_O.BMP,stimuli/EmptyFrame.bmp,stimuli/RedFrame.bmp,2,Happy,Female,3,1,1.0,356.39691162109375,356.39691162109375,0.0,360.37628173828125,360.37628173828125,0.0,359.3964538574219,359.3964538574219,0.0,1.0,1.0,0.0,'2',1.0876437425613403,1.0876437425613403,0.0,85.0
Happy,stimuli/15F_HA_O.BMP,stimuli/15F_HA_O.BMP,stimuli/14F_HA_O.BMP,stimuli/EmptyFrame.bmp,stimuli/RedFrame.bmp,1,Happy,Female,3,1,1.0,360.4036865234375,360.4036865234375,0.0,364.39044189453125,364.39044189453125,0.0,363.40325927734375,363.40325927734375,0.0,1.0,1.0,0.0,'1',1.0079909563064575,1.0079909563064575,0.0,86.0
Happy,stimuli/08F_HA_O.BMP,stimuli/08F_HA_O.BMP,stimuli/09F_HA_O.BMP,stimuli/EmptyFrame.bmp,stimuli/RedFrame.bmp,1,Happy,Female,3,1,1.0,364.4178466796875,364.4178466796875,0.0,368.4039001464844,368.4039001464844,0.0,367.4228210449219,367.4228210449219,0.0,1.0,1.0,0.0,'1',1.2773000001907349,1.2773000001907349,0.0,87.0
MatchFaces,stimuli/MatchFaces.bmp,stimuli/EmptyFace.bmp,stimuli/EmptyFace.bmp,stimuli/EmptyFrame.bmp,stimuli/EmptyFrame.bmp,Null,None,None,3,1,1.0,368.5722961425781,368.5722961425781,0.0,372.4097900390625,372.4097900390625,0.0,371.4201965332031,371.4201965332031,0.0,0.0,0.0,0.0,,,,,88.0
Fear,stimuli/34M_FE_O.BMP,stimuli/34M_FE_O.BMP,stimuli/33M_FE_O.BMP,stimuli/EmptyFrame.bmp,stimuli/RedFrame.bmp,1,Fear,Male,3,1,1.0,372.4680480957031,372.4680480957031,0.0,376.43084716796875,376.43084716796875,0.0,375.4359436035156,375.4359436035156,0.0,1.0,1.0,0.0,'1',1.1879210472106934,1.1879210472106934,0.0,89.0
Fear,stimuli/28M_FE_O.BMP,stimuli/28M_FE_O.BMP,stimuli/25M_FE_O.BMP,stimuli/EmptyFrame.bmp,stimuli/RedFrame.bmp,1,Fear,Male,3,1,1.0,376.4559631347656,376.4559631347656,0.0,380.44989013671875,380.44989013671875,0.0,379.4627685546875,379.4627685546875,0.0,1.0,1.0,0.0,'1',1.0993919372558594,1.0993919372558594,0.0,90.0
Fear,stimuli/11F_FE_O.BMP,stimuli/10F_FE_O.BMP,stimuli/11F_FE_O.BMP,stimuli/EmptyFrame.bmp,stimuli/RedFrame.bmp,2,Fear,Female,3,1,1.0,380.473388671875,380.473388671875,0.0,384.4635314941406,384.4635314941406,0.0,383.47454833984375,383.47454833984375,0.0,1.0,1.0,0.0,'2',0.8809899091720581,0.8809899091720581,0.0,91.0
Fear,stimuli/27M_FE_O.BMP,stimuli/26M_FE_O.BMP,stimuli/27M_FE_O.BMP,stimuli/EmptyFrame.bmp,stimuli/RedFrame.bmp,2,Fear,Male,3,1,1.0,384.4908752441406,384.4908752441406,0.0,388.48760986328125,388.48760986328125,0.0,387.5030822753906,387.5030822753906,0.0,1.0,1.0,0.0,'2',1.2627407312393188,1.2627407312393188,0.0,92.0
Fear,stimuli/11F_FE_O.BMP,stimuli/12F_FE_O.BMP,stimuli/11F_FE_O.BMP,stimuli/EmptyFrame.bmp,stimuli/RedFrame.bmp,2,Fear,Female,3,1,1.0,388.5159606933594,388.5159606933594,0.0,392.5046691894531,392.5046691894531,0.0,391.516357421875,391.516357421875,0.0,1.0,1.0,0.0,'2',0.771171510219574,0.771171510219574,0.0,93.0
Fear,stimuli/31M_FE_O.BMP,stimuli/31M_FE_O.BMP,stimuli/38M_FE_O.BMP,stimuli/EmptyFrame.bmp,stimuli/RedFrame.bmp,1,Fear,Male,3,1,1.0,392.5307312011719,392.5307312011719,0.0,396.5216979980469,396.5216979980469,0.0,395.5245666503906,395.5245666503906,0.0,1.0,1.0,0.0,'1',0.7373586297035217,0.7373586297035217,0.0,94.0
Fear,stimuli/29M_FE_O.BMP,stimuli/29M_FE_O.BMP,stimuli/24M_FE_O.BMP,stimuli/EmptyFrame.bmp,stimuli/RedFrame.bmp,1,Fear,Male,3,1,1.0,396.5445556640625,396.5445556640625,0.0,400.5340576171875,400.5340576171875,0.0,399.55133056640625,399.55133056640625,0.0,1.0,1.0,0.0,'1',0.9598017930984497,0.9598017930984497,0.0,95.0
Fear,stimuli/25M_FE_O.BMP,stimuli/29M_FE_O.BMP,stimuli/25M_FE_O.BMP,stimuli/EmptyFrame.bmp,stimuli/RedFrame.bmp,2,Fear,Male,3,1,1.0,400.5556640625,400.5556640625,0.0,404.542724609375,404.542724609375,0.0,403.55889892578125,403.55889892578125,0.0,1.0,1.0,0.0,'2',1.5125900506973267,1.5125900506973267,0.0,96.0
Fear,stimuli/15F_FE_O.BMP,stimuli/18F_FE_O.BMP,stimuli/15F_FE_O.BMP,stimuli/EmptyFrame.bmp,stimuli/RedFrame.bmp,2,Fear,Female,3,1,1.0,404.5684814453125,404.5684814453125,0.0,408.5627136230469,408.5627136230469,0.0,407.5703430175781,407.5703430175781,0.0,1.0,1.0,0.0,'2',1.5545716285705566,1.5545716285705566,0.0,97.0
Fear,stimuli/09F_FE_O.BMP,stimuli/09F_FE_O.BMP,stimuli/12F_FE_O.BMP,stimuli/EmptyFrame.bmp,stimuli/RedFrame.bmp,1,Fear,Female,3,1,1.0,408.5863342285156,408.5863342285156,0.0,412.57537841796875,412.57537841796875,0.0,411.592041015625,411.592041015625,0.0,1.0,1.0,0.0,'1',1.0323928594589233,1.0323928594589233,0.0,98.0
MatchFaces,stimuli/MatchFaces.bmp,stimuli/EmptyFace.bmp,stimuli/EmptyFace.bmp,stimuli/EmptyFrame.bmp,stimuli/EmptyFrame.bmp,Null,None,None,3,1,1.0,412.7517395019531,412.7517395019531,0.0,416.5765686035156,416.5765686035156,0.0,415.5928039550781,415.5928039550781,0.0,0.0,0.0,0.0,,,,,99.0
Anger,stimuli/23M_AN_O.BMP,stimuli/23M_AN_O.BMP,stimuli/31M_AN_O.BMP,stimuli/EmptyFrame.bmp,stimuli/RedFrame.bmp,1,Anger,Male,3,1,1.0,416.6335144042969,416.6335144042969,0.0,420.59002685546875,420.59002685546875,0.0,419.61077880859375,419.61077880859375,0.0,1.0,1.0,0.0,'1',0.889251708984375,0.889251708984375,0.0,100.0
Anger,stimuli/36M_AN_O.BMP,stimuli/37M_AN_O.BMP,stimuli/36M_AN_O.BMP,stimuli/EmptyFrame.bmp,stimuli/RedFrame.bmp,2,Anger,Male,3,1,1.0,420.62176513671875,420.62176513671875,0.0,424.6064453125,424.6064453125,0.0,423.61602783203125,423.61602783203125,0.0,1.0,1.0,0.0,'2',0.8862724900245667,0.8862724900245667,0.0,101.0
Anger,stimuli/38M_AN_O.BMP,stimuli/39M_AN_O.BMP,stimuli/38M_AN_O.BMP,stimuli/EmptyFrame.bmp,stimuli/RedFrame.bmp,2,Anger,Male,3,1,1.0,424.6332092285156,424.6332092285156,0.0,428.6152648925781,428.6152648925781,0.0,427.6344299316406,427.6344299316406,0.0,1.0,1.0,0.0,'2',1.1180530786514282,1.1180530786514282,0.0,102.0
Anger,stimuli/02f_an_o.bmp,stimuli/18F_AN_O.BMP,stimuli/02f_an_o.bmp,stimuli/EmptyFrame.bmp,stimuli/RedFrame.bmp,2,Anger,Female,3,1,1.0,428.6494445800781,428.6494445800781,0.0,432.62603759765625,432.62603759765625,0.0,431.6422119140625,431.6422119140625,0.0,1.0,1.0,0.0,'2',0.6885226964950562,0.6885226964950562,0.0,103.0
Anger,stimuli/22M_AN_O.BMP,stimuli/32M_AN_O.BMP,stimuli/22M_AN_O.BMP,stimuli/EmptyFrame.bmp,stimuli/RedFrame.bmp,2,Anger,Male,3,1,1.0,432.6542053222656,432.6542053222656,0.0,436.64190673828125,436.64190673828125,0.0,435.6573181152344,435.6573181152344,0.0,1.0,1.0,0.0,'2',0.8013461232185364,0.8013461232185364,0.0,104.0
Anger,stimuli/12F_AN_O.BMP,stimuli/12F_AN_O.BMP,stimuli/13F_AN_O.BMP,stimuli/EmptyFrame.bmp,stimuli/RedFrame.bmp,1,Anger,Female,3,1,1.0,436.66778564453125,436.66778564453125,0.0,440.66424560546875,440.66424560546875,0.0,439.6748352050781,439.6748352050781,0.0,1.0,1.0,0.0,'1',0.7680450081825256,0.7680450081825256,0.0,105.0
Anger,stimuli/05F_AN_O.bmp,stimuli/05F_AN_O.bmp,stimuli/16F_AN_O.BMP,stimuli/EmptyFrame.bmp,stimuli/RedFrame.bmp,1,Anger,Female,3,1,1.0,440.695556640625,440.695556640625,0.0,444.6742858886719,444.6742858886719,0.0,443.69525146484375,443.69525146484375,0.0,1.0,1.0,0.0,'1',1.0818593502044678,1.0818593502044678,0.0,106.0
Anger,stimuli/21M_AN_O.BMP,stimuli/21M_AN_O.BMP,stimuli/33M_AN_O.BMP,stimuli/EmptyFrame.bmp,stimuli/RedFrame.bmp,1,Anger,Male,3,1,1.0,444.70428466796875,444.70428466796875,0.0,448.68865966796875,448.68865966796875,0.0,447.6976623535156,447.6976623535156,0.0,1.0,1.0,0.0,'1',1.2502013444900513,1.2502013444900513,0.0,107.0
Anger,stimuli/07F_AN_O.BMP,stimuli/07F_AN_O.BMP,stimuli/14F_AN_O.BMP,stimuli/EmptyFrame.bmp,stimuli/RedFrame.bmp,1,Anger,Female,3,1,1.0,448.7172546386719,448.7172546386719,0.0,452.703369140625,452.703369140625,0.0,451.7216796875,451.7216796875,0.0,1.0,1.0,0.0,'1',0.8684207797050476,0.8684207797050476,0.0,108.0
Anger,stimuli/10F_AN_O.BMP,stimuli/10F_AN_O.BMP,stimuli/11F_AN_O.BMP,stimuli/EmptyFrame.bmp,stimuli/RedFrame.bmp,1,Anger,Female,3,1,1.0,452.7340393066406,452.7340393066406,0.0,456.7150573730469,456.7150573730469,0.0,455.7248840332031,455.7248840332031,0.0,1.0,1.0,0.0,'1',0.8213136196136475,0.8213136196136475,0.0,109.0

extraInfo
participant,sub025
session,002
date,2025_Aug_06_0913
expName,HaririTask_Ver2
psychopyVersion,3.0.1
frameRate,None
