TrialType,Top,Left,Right,EmptyFrame,SelectedFrame,Correct,Emotion,Gender,TrialLength,FixationLength,n,GCFaceStartTime_mean,GCFaceStartTime_raw,GCFaceStartTime_std,GCPostFaceFixationEndTime_mean,GCPostFaceFixationEndTime_raw,GCPostFaceFixationEndTime_std,GCPostFaceFixationStartTime_mean,GCPostFaceFixationStartTime_raw,GCPostFaceFixationStartTime_std,key_resp_trial.corr_mean,key_resp_trial.corr_raw,key_resp_trial.corr_std,key_resp_trial.keys_raw,key_resp_trial.rt_mean,key_resp_trial.rt_raw,key_resp_trial.rt_std,order
MatchFaces,stimuli/MatchFaces.bmp,stimuli/EmptyFace.bmp,stimuli/EmptyFace.bmp,stimuli/EmptyFrame.bmp,stimuli/EmptyFrame.bmp,Null,None,None,3,1,1.0,15.234045028686523,15.234045028686523,0.0,19.034130096435547,19.034130096435547,0.0,18.032913208007812,18.032913208007812,0.0,0.0,0.0,0.0,,,,,0.0
Fear,stimuli/23M_FE_O.BMP,stimuli/23M_FE_O.BMP,stimuli/24M_FE_O.BMP,stimuli/EmptyFrame.bmp,stimuli/RedFrame.bmp,1,Fear,Male,3,1,1.0,19.219697952270508,19.219697952270508,0.0,23.060632705688477,23.060632705688477,0.0,22.063720703125,22.063720703125,0.0,1.0,1.0,0.0,'1',1.1049226522445679,1.1049226522445679,0.0,1.0
Fear,stimuli/19F_FE_O.BMP,stimuli/18F_FE_O.BMP,stimuli/19F_FE_O.BMP,stimuli/EmptyFrame.bmp,stimuli/RedFrame.bmp,2,Fear,Female,3,1,1.0,23.087072372436523,23.087072372436523,0.0,27.0787296295166,27.0787296295166,0.0,26.086261749267578,26.086261749267578,0.0,1.0,1.0,0.0,'2',0.8485100269317627,0.8485100269317627,0.0,2.0
Fear,stimuli/17F_FE_O.BMP,stimuli/17F_FE_O.BMP,stimuli/16F_FE_O.BMP,stimuli/EmptyFrame.bmp,stimuli/RedFrame.bmp,1,Fear,Female,3,1,1.0,27.102840423583984,27.102840423583984,0.0,31.089374542236328,31.089374542236328,0.0,30.105810165405273,30.105810165405273,0.0,1.0,1.0,0.0,'1',1.0265655517578125,1.0265655517578125,0.0,3.0
Fear,stimuli/21M_FE_O.BMP,stimuli/21M_FE_O.BMP,stimuli/22M_FE_O.BMP,stimuli/EmptyFrame.bmp,stimuli/RedFrame.bmp,1,Fear,Male,3,1,1.0,31.114910125732422,31.114910125732422,0.0,35.10477066040039,35.10477066040039,0.0,34.12300491333008,34.12300491333008,0.0,1.0,1.0,0.0,'1',0.9565777778625488,0.9565777778625488,0.0,4.0
Fear,stimuli/09F_FE_O.BMP,stimuli/07F_FE_O.BMP,stimuli/09F_FE_O.BMP,stimuli/EmptyFrame.bmp,stimuli/RedFrame.bmp,2,Fear,Female,3,1,1.0,35.135231018066406,35.135231018066406,0.0,39.120941162109375,39.120941162109375,0.0,38.134578704833984,38.134578704833984,0.0,1.0,1.0,0.0,'2',1.0015170574188232,1.0015170574188232,0.0,5.0
Fear,stimuli/08F_FE_O.BMP,stimuli/13F_FE_O.BMP,stimuli/08F_FE_O.BMP,stimuli/EmptyFrame.bmp,stimuli/RedFrame.bmp,2,Fear,Female,3,1,1.0,39.18648910522461,39.18648910522461,0.0,43.1340217590332,43.1340217590332,0.0,42.147727966308594,42.147727966308594,0.0,1.0,1.0,0.0,'2',0.9479984045028687,0.9479984045028687,0.0,6.0
Fear,stimuli/07F_FE_O.BMP,stimuli/07F_FE_O.BMP,stimuli/14F_FE_O.BMP,stimuli/EmptyFrame.bmp,stimuli/RedFrame.bmp,1,Fear,Female,3,1,1.0,43.16250991821289,43.16250991821289,0.0,47.14427947998047,47.14427947998047,0.0,46.15969467163086,46.15969467163086,0.0,1.0,1.0,0.0,'1',0.7895845770835876,0.7895845770835876,0.0,7.0
Fear,stimuli/26M_FE_O.BMP,stimuli/26M_FE_O.BMP,stimuli/28M_FE_O.BMP,stimuli/EmptyFrame.bmp,stimuli/RedFrame.bmp,1,Fear,Male,3,1,1.0,47.175174713134766,47.175174713134766,0.0,51.16191864013672,51.16191864013672,0.0,50.17573165893555,50.17573165893555,0.0,1.0,1.0,0.0,'1',0.8823615908622742,0.8823615908622742,0.0,8.0
Fear,stimuli/10F_FE_O.BMP,stimuli/11F_FE_O.BMP,stimuli/10F_FE_O.BMP,stimuli/EmptyFrame.bmp,stimuli/RedFrame.bmp,2,Fear,Female,3,1,1.0,51.18572998046875,51.18572998046875,0.0,55.18529510498047,55.18529510498047,0.0,54.187095642089844,54.187095642089844,0.0,1.0,1.0,0.0,'2',0.7841219902038574,0.7841219902038574,0.0,9.0
Fear,stimuli/29M_FE_O.BMP,stimuli/30M_FE_O.BMP,stimuli/29M_FE_O.BMP,stimuli/EmptyFrame.bmp,stimuli/RedFrame.bmp,2,Fear,Male,3,1,1.0,55.215755462646484,55.215755462646484,0.0,59.19966125488281,59.19966125488281,0.0,58.21744155883789,58.21744155883789,0.0,1.0,1.0,0.0,'2',0.7383733987808228,0.7383733987808228,0.0,10.0
MatchFaces,stimuli/MatchFaces.bmp,stimuli/EmptyFace.bmp,stimuli/EmptyFace.bmp,stimuli/EmptyFrame.bmp,stimuli/EmptyFrame.bmp,Null,None,None,3,1,1.0,59.32497787475586,59.32497787475586,0.0,63.20606231689453,63.20606231689453,0.0,62.21912384033203,62.21912384033203,0.0,0.0,0.0,0.0,,,,,11.0
Neutral,stimuli/07F_NE_C.BMP,stimuli/07F_NE_C.BMP,stimuli/14F_NE_C.BMP,stimuli/EmptyFrame.bmp,stimuli/RedFrame.bmp,1,Neutral,Female,3,1,1.0,63.25984573364258,63.25984573364258,0.0,67.2191162109375,67.2191162109375,0.0,66.23196411132812,66.23196411132812,0.0,1.0,1.0,0.0,'1',0.8195006847381592,0.8195006847381592,0.0,12.0
Neutral,stimuli/25M_NE_C.BMP,stimuli/29M_NE_C.BMP,stimuli/25M_NE_C.BMP,stimuli/EmptyFrame.bmp,stimuli/RedFrame.bmp,2,Neutral,Male,3,1,1.0,67.24353790283203,67.24353790283203,0.0,71.23686218261719,71.23686218261719,0.0,70.24771881103516,70.24771881103516,0.0,1.0,1.0,0.0,'2',1.0431755781173706,1.0431755781173706,0.0,13.0
Neutral,stimuli/26M_NE_C.BMP,stimuli/26M_NE_C.BMP,stimuli/28M_NE_C.BMP,stimuli/EmptyFrame.bmp,stimuli/RedFrame.bmp,1,Neutral,Male,3,1,1.0,71.26325988769531,71.26325988769531,0.0,75.25762176513672,75.25762176513672,0.0,74.26924896240234,74.26924896240234,0.0,1.0,1.0,0.0,'1',0.7414309978485107,0.7414309978485107,0.0,14.0
Neutral,stimuli/08F_NE_C.BMP,stimuli/13F_NE_C.BMP,stimuli/08F_NE_C.BMP,stimuli/EmptyFrame.bmp,stimuli/RedFrame.bmp,2,Neutral,Female,3,1,1.0,75.32569122314453,75.32569122314453,0.0,79.27606201171875,79.27606201171875,0.0,78.29092407226562,78.29092407226562,0.0,1.0,1.0,0.0,'2',0.8304979205131531,0.8304979205131531,0.0,15.0
Neutral,stimuli/09F_NE_C.BMP,stimuli/09F_NE_C.BMP,stimuli/12F_NE_C.BMP,stimuli/EmptyFrame.bmp,stimuli/RedFrame.bmp,1,Neutral,Female,3,1,1.0,79.30545043945312,79.30545043945312,0.0,83.28783416748047,83.28783416748047,0.0,82.30516815185547,82.30516815185547,0.0,1.0,1.0,0.0,'1',0.7652996182441711,0.7652996182441711,0.0,16.0
Neutral,stimuli/27M_NE_C.BMP,stimuli/26M_NE_C.BMP,stimuli/27M_NE_C.BMP,stimuli/EmptyFrame.bmp,stimuli/RedFrame.bmp,2,Neutral,Male,3,1,1.0,83.31568908691406,83.31568908691406,0.0,87.31306457519531,87.31306457519531,0.0,86.31605529785156,86.31605529785156,0.0,1.0,1.0,0.0,'2',0.8271682262420654,0.8271682262420654,0.0,17.0
Neutral,stimuli/28M_NE_C.BMP,stimuli/28M_NE_C.BMP,stimuli/25M_NE_C.BMP,stimuli/EmptyFrame.bmp,stimuli/RedFrame.bmp,1,Neutral,Male,3,1,1.0,87.3372802734375,87.3372802734375,0.0,91.32757568359375,91.32757568359375,0.0,90.33560180664062,90.33560180664062,0.0,1.0,1.0,0.0,'1',0.7457700967788696,0.7457700967788696,0.0,18.0
Neutral,stimuli/10F_NE_C.BMP,stimuli/11F_NE_C.BMP,stimuli/10F_NE_C.BMP,stimuli/EmptyFrame.bmp,stimuli/RedFrame.bmp,2,Neutral,Female,3,1,1.0,91.35345458984375,91.35345458984375,0.0,95.3477554321289,95.3477554321289,0.0,94.36329650878906,94.36329650878906,0.0,1.0,1.0,0.0,'2',0.6448556780815125,0.6448556780815125,0.0,19.0
Neutral,stimuli/29M_NE_C.BMP,stimuli/29M_NE_C.BMP,stimuli/24M_NE_C.BMP,stimuli/EmptyFrame.bmp,stimuli/RedFrame.bmp,1,Neutral,Male,3,1,1.0,95.37906646728516,95.37906646728516,0.0,99.36978912353516,99.36978912353516,0.0,98.38482666015625,98.38482666015625,0.0,1.0,1.0,0.0,'1',0.8246902227401733,0.8246902227401733,0.0,20.0
Neutral,stimuli/11F_NE_C.BMP,stimuli/10F_NE_C.BMP,stimuli/11F_NE_C.BMP,stimuli/EmptyFrame.bmp,stimuli/RedFrame.bmp,2,Neutral,Female,3,1,1.0,99.39491271972656,99.39491271972656,0.0,103.38770294189453,103.38770294189453,0.0,102.40974426269531,102.40974426269531,0.0,1.0,1.0,0.0,'2',0.7201176285743713,0.7201176285743713,0.0,21.0
MatchShape,stimuli/MatchShapes.bmp,stimuli/EmptyFace.bmp,stimuli/EmptyFace.bmp,stimuli/EmptyFrame.bmp,stimuli/EmptyFrame.bmp,Null,None,None,3,1,1.0,103.43090057373047,103.43090057373047,0.0,107.38985443115234,107.38985443115234,0.0,106.4013442993164,106.4013442993164,0.0,0.0,0.0,0.0,,,,,22.0
Shape,stimuli/circle.bmp,stimuli/vertical.bmp,stimuli/circle.bmp,stimuli/EmptyFrame.bmp,stimuli/RedFrame.bmp,2,Shape,None,3,1,1.0,107.46229553222656,107.46229553222656,0.0,111.4051513671875,111.4051513671875,0.0,110.42212677001953,110.42212677001953,0.0,1.0,1.0,0.0,'2',0.9510527849197388,0.9510527849197388,0.0,23.0
Shape,stimuli/horizontal.bmp,stimuli/circle.bmp,stimuli/horizontal.bmp,stimuli/EmptyFrame.bmp,stimuli/RedFrame.bmp,2,Shape,None,3,1,1.0,111.43135070800781,111.43135070800781,0.0,115.423095703125,115.423095703125,0.0,114.44303131103516,114.44303131103516,0.0,1.0,1.0,0.0,'2',0.9740338921546936,0.9740338921546936,0.0,24.0
Shape,stimuli/circle.bmp,stimuli/vertical.bmp,stimuli/circle.bmp,stimuli/EmptyFrame.bmp,stimuli/RedFrame.bmp,2,Shape,None,3,1,1.0,115.44424438476562,115.44424438476562,0.0,119.43698120117188,119.43698120117188,0.0,118.44673919677734,118.44673919677734,0.0,1.0,1.0,0.0,'2',1.07366144657135,1.07366144657135,0.0,25.0
Shape,stimuli/vertical.bmp,stimuli/circle.bmp,stimuli/vertical.bmp,stimuli/EmptyFrame.bmp,stimuli/RedFrame.bmp,2,Shape,None,3,1,1.0,119.46070098876953,119.46070098876953,0.0,123.44810485839844,123.44810485839844,0.0,122.47064971923828,122.47064971923828,0.0,1.0,1.0,0.0,'2',0.9515835046768188,0.9515835046768188,0.0,26.0
Shape,stimuli/vertical.bmp,stimuli/horizontal.bmp,stimuli/vertical.bmp,stimuli/EmptyFrame.bmp,stimuli/RedFrame.bmp,2,Shape,None,3,1,1.0,123.46975708007812,123.46975708007812,0.0,127.46565246582031,127.46565246582031,0.0,126.47483825683594,126.47483825683594,0.0,1.0,1.0,0.0,'2',1.036612868309021,1.036612868309021,0.0,27.0
Shape,stimuli/horizontal.bmp,stimuli/horizontal.bmp,stimuli/vertical.bmp,stimuli/EmptyFrame.bmp,stimuli/RedFrame.bmp,1,Shape,None,3,1,1.0,127.48583221435547,127.48583221435547,0.0,131.47998046875,131.47998046875,0.0,130.50051879882812,130.50051879882812,0.0,1.0,1.0,0.0,'1',0.9930320978164673,0.9930320978164673,0.0,28.0
Shape,stimuli/horizontal.bmp,stimuli/circle.bmp,stimuli/horizontal.bmp,stimuli/EmptyFrame.bmp,stimuli/RedFrame.bmp,2,Shape,None,3,1,1.0,131.50379943847656,131.50379943847656,0.0,135.50054931640625,135.50054931640625,0.0,134.5144500732422,134.5144500732422,0.0,1.0,1.0,0.0,'2',0.9498286843299866,0.9498286843299866,0.0,29.0
Shape,stimuli/circle.bmp,stimuli/circle.bmp,stimuli/vertical.bmp,stimuli/EmptyFrame.bmp,stimuli/RedFrame.bmp,1,Shape,None,3,1,1.0,135.52220153808594,135.52220153808594,0.0,139.51255798339844,139.51255798339844,0.0,138.53826904296875,138.53826904296875,0.0,1.0,1.0,0.0,'1',0.9321975111961365,0.9321975111961365,0.0,30.0
Shape,stimuli/vertical.bmp,stimuli/horizontal.bmp,stimuli/vertical.bmp,stimuli/EmptyFrame.bmp,stimuli/RedFrame.bmp,2,Shape,None,3,1,1.0,139.53598022460938,139.53598022460938,0.0,143.5313720703125,143.5313720703125,0.0,142.53756713867188,142.53756713867188,0.0,1.0,1.0,0.0,'2',0.8351861834526062,0.8351861834526062,0.0,31.0
Shape,stimuli/vertical.bmp,stimuli/vertical.bmp,stimuli/horizontal.bmp,stimuli/EmptyFrame.bmp,stimuli/RedFrame.bmp,1,Shape,None,3,1,1.0,143.55599975585938,143.55599975585938,0.0,147.5414276123047,147.5414276123047,0.0,146.5606231689453,146.5606231689453,0.0,1.0,1.0,0.0,'1',0.7632876038551331,0.7632876038551331,0.0,32.0
MatchFaces,stimuli/MatchFaces.bmp,stimuli/EmptyFace.bmp,stimuli/EmptyFace.bmp,stimuli/EmptyFrame.bmp,stimuli/EmptyFrame.bmp,Null,None,None,3,1,1.0,147.6728057861328,147.6728057861328,0.0,151.55361938476562,151.55361938476562,0.0,150.5537567138672,150.5537567138672,0.0,0.0,0.0,0.0,,,,,33.0
Anger,stimuli/20M_AN_O.BMP,stimuli/34M_AN_O.BMP,stimuli/20M_AN_O.BMP,stimuli/EmptyFrame.bmp,stimuli/RedFrame.bmp,2,Anger,Male,3,1,1.0,151.5945587158203,151.5945587158203,0.0,155.57376098632812,155.57376098632812,0.0,154.5800018310547,154.5800018310547,0.0,1.0,1.0,0.0,'2',0.8334966897964478,0.8334966897964478,0.0,34.0
Anger,stimuli/01F_AN_O.bmp,stimuli/19F_AN_O.BMP,stimuli/01F_AN_O.bmp,stimuli/EmptyFrame.bmp,stimuli/RedFrame.bmp,2,Anger,Female,3,1,1.0,155.6043243408203,155.6043243408203,0.0,159.59278869628906,159.59278869628906,0.0,158.60154724121094,158.60154724121094,0.0,1.0,1.0,0.0,'2',0.950673520565033,0.950673520565033,0.0,35.0
Anger,stimuli/06F_AN_O.bmp,stimuli/15F_AN_O.BMP,stimuli/06F_AN_O.bmp,stimuli/EmptyFrame.bmp,stimuli/RedFrame.bmp,2,Anger,Female,3,1,1.0,159.62399291992188,159.62399291992188,0.0,163.6083221435547,163.6083221435547,0.0,162.61878967285156,162.61878967285156,0.0,1.0,1.0,0.0,'2',1.125198245048523,1.125198245048523,0.0,36.0
Anger,stimuli/42M_AN_O.BMP,stimuli/42M_AN_O.BMP,stimuli/43M_AN_O.BMP,stimuli/EmptyFrame.bmp,stimuli/RedFrame.bmp,1,Anger,Male,3,1,1.0,163.6377410888672,163.6377410888672,0.0,167.61895751953125,167.61895751953125,0.0,166.63876342773438,166.63876342773438,0.0,1.0,1.0,0.0,'1',0.9479122161865234,0.9479122161865234,0.0,37.0
Anger,stimuli/40M_AN_O.BMP,stimuli/41M_AN_O.BMP,stimuli/40M_AN_O.BMP,stimuli/EmptyFrame.bmp,stimuli/RedFrame.bmp,2,Anger,Male,3,1,1.0,167.64312744140625,167.64312744140625,0.0,171.64649963378906,171.64649963378906,0.0,170.65090942382812,170.65090942382812,0.0,1.0,1.0,0.0,'2',0.9055706858634949,0.9055706858634949,0.0,38.0
Anger,stimuli/08F_AN_O.BMP,stimuli/08F_AN_O.BMP,stimuli/13F_AN_O.BMP,stimuli/EmptyFrame.bmp,stimuli/RedFrame.bmp,1,Anger,Female,3,1,1.0,171.7110595703125,171.7110595703125,0.0,175.66612243652344,175.66612243652344,0.0,174.68406677246094,174.68406677246094,0.0,1.0,1.0,0.0,'1',0.9476218819618225,0.9476218819618225,0.0,39.0
Anger,stimuli/09F_AN_O.BMP,stimuli/12F_AN_O.BMP,stimuli/09F_AN_O.BMP,stimuli/EmptyFrame.bmp,stimuli/RedFrame.bmp,2,Anger,Female,3,1,1.0,175.72830200195312,175.72830200195312,0.0,179.68478393554688,179.68478393554688,0.0,178.69586181640625,178.69586181640625,0.0,1.0,1.0,0.0,'2',1.0241178274154663,1.0241178274154663,0.0,40.0
Anger,stimuli/34M_AN_O.BMP,stimuli/35M_AN_O.BMP,stimuli/34M_AN_O.BMP,stimuli/EmptyFrame.bmp,stimuli/RedFrame.bmp,2,Anger,Male,3,1,1.0,179.7078399658203,179.7078399658203,0.0,183.69830322265625,183.69830322265625,0.0,182.72161865234375,182.72161865234375,0.0,1.0,1.0,0.0,'2',0.9393417239189148,0.9393417239189148,0.0,41.0
Anger,stimuli/24M_AN_O.BMP,stimuli/24M_AN_O.BMP,stimuli/30M_AN_O.BMP,stimuli/EmptyFrame.bmp,stimuli/RedFrame.bmp,1,Anger,Male,3,1,1.0,183.72425842285156,183.72425842285156,0.0,187.7213592529297,187.7213592529297,0.0,186.71981811523438,186.71981811523438,0.0,1.0,1.0,0.0,'1',0.9603759050369263,0.9603759050369263,0.0,42.0
Anger,stimuli/03F_AN_O.bmp,stimuli/03F_AN_O.bmp,stimuli/17F_AN_O.BMP,stimuli/EmptyFrame.bmp,stimuli/RedFrame.bmp,1,Anger,Female,3,1,1.0,187.7526397705078,187.7526397705078,0.0,191.7318115234375,191.7318115234375,0.0,190.7416229248047,190.7416229248047,0.0,1.0,1.0,0.0,'1',0.8665573000907898,0.8665573000907898,0.0,43.0
MatchFaces,stimuli/MatchFaces.bmp,stimuli/EmptyFace.bmp,stimuli/EmptyFace.bmp,stimuli/EmptyFrame.bmp,stimuli/EmptyFrame.bmp,Null,None,None,3,1,1.0,191.86251831054688,191.86251831054688,0.0,195.73390197753906,195.73390197753906,0.0,194.75221252441406,194.75221252441406,0.0,0.0,0.0,0.0,,,,,44.0
Happy,stimuli/06F_HA_O.bmp,stimuli/07F_HA_O.BMP,stimuli/06F_HA_O.bmp,stimuli/EmptyFrame.bmp,stimuli/RedFrame.bmp,2,Happy,Female,3,1,1.0,195.7847900390625,195.7847900390625,0.0,199.7458038330078,199.7458038330078,0.0,198.77696228027344,198.77696228027344,0.0,1.0,1.0,0.0,'2',0.8033924102783203,0.8033924102783203,0.0,45.0
Happy,stimuli/13F_HA_O.BMP,stimuli/13F_HA_O.BMP,stimuli/12F_HA_O.BMP,stimuli/EmptyFrame.bmp,stimuli/RedFrame.bmp,1,Happy,Female,3,1,1.0,199.7766876220703,199.7766876220703,0.0,203.7669219970703,203.7669219970703,0.0,202.77206420898438,202.77206420898438,0.0,1.0,1.0,0.0,'1',0.8432018160820007,0.8432018160820007,0.0,46.0
Happy,stimuli/41M_HA_O.BMP,stimuli/41M_HA_O.BMP,stimuli/40M_HA_O.BMP,stimuli/EmptyFrame.bmp,stimuli/RedFrame.bmp,1,Happy,Male,3,1,1.0,203.7943572998047,203.7943572998047,0.0,207.7862091064453,207.7862091064453,0.0,206.8013458251953,206.8013458251953,0.0,1.0,1.0,0.0,'1',0.9314358830451965,0.9314358830451965,0.0,47.0
Happy,stimuli/03F_HA_O.bmp,stimuli/05F_HA_O.bmp,stimuli/03F_HA_O.bmp,stimuli/EmptyFrame.bmp,stimuli/RedFrame.bmp,2,Happy,Female,3,1,1.0,207.814697265625,207.814697265625,0.0,211.79876708984375,211.79876708984375,0.0,210.8166046142578,210.8166046142578,0.0,1.0,1.0,0.0,'2',0.9817032217979431,0.9817032217979431,0.0,48.0
Happy,stimuli/24M_HA_O.BMP,stimuli/24M_HA_O.BMP,stimuli/25M_HA_O.BMP,stimuli/EmptyFrame.bmp,stimuli/RedFrame.bmp,1,Happy,Male,3,1,1.0,211.82142639160156,211.82142639160156,0.0,215.81463623046875,215.81463623046875,0.0,214.82347106933594,214.82347106933594,0.0,1.0,1.0,0.0,'1',1.1471153497695923,1.1471153497695923,0.0,49.0
Happy,stimuli/19F_HA_O.BMP,stimuli/19F_HA_O.BMP,stimuli/18F_HA_O.BMP,stimuli/EmptyFrame.bmp,stimuli/RedFrame.bmp,1,Happy,Female,3,1,1.0,215.8391571044922,215.8391571044922,0.0,219.83306884765625,219.83306884765625,0.0,218.83834838867188,218.83834838867188,0.0,1.0,1.0,0.0,'1',1.2608139514923096,1.2608139514923096,0.0,50.0
Happy,stimuli/01F_HA_O.bmp,stimuli/01F_HA_O.bmp,stimuli/02F_HA_O.bmp,stimuli/EmptyFrame.bmp,stimuli/RedFrame.bmp,1,Happy,Female,3,1,1.0,219.86312866210938,219.86312866210938,0.0,223.8488311767578,223.8488311767578,0.0,222.86354064941406,222.86354064941406,0.0,1.0,1.0,0.0,'1',0.9932258725166321,0.9932258725166321,0.0,51.0
Happy,stimuli/22M_HA_O.BMP,stimuli/23M_HA_O.BMP,stimuli/22M_HA_O.BMP,stimuli/EmptyFrame.bmp,stimuli/RedFrame.bmp,2,Happy,Male,3,1,1.0,223.87379455566406,223.87379455566406,0.0,227.86927795410156,227.86927795410156,0.0,226.87445068359375,226.87445068359375,0.0,1.0,1.0,0.0,'2',1.1794389486312866,1.1794389486312866,0.0,52.0
Happy,stimuli/35M_HA_O.BMP,stimuli/34M_HA_O.BMP,stimuli/35M_HA_O.BMP,stimuli/EmptyFrame.bmp,stimuli/RedFrame.bmp,2,Happy,Male,3,1,1.0,227.8966522216797,227.8966522216797,0.0,231.87818908691406,231.87818908691406,0.0,230.90451049804688,230.90451049804688,0.0,1.0,1.0,0.0,'2',1.1305865049362183,1.1305865049362183,0.0,53.0
Happy,stimuli/39M_HA_O.BMP,stimuli/38M_HA_O.BMP,stimuli/39M_HA_O.BMP,stimuli/EmptyFrame.bmp,stimuli/RedFrame.bmp,2,Happy,Male,3,1,1.0,231.9059600830078,231.9059600830078,0.0,235.888427734375,235.888427734375,0.0,234.91029357910156,234.91029357910156,0.0,1.0,1.0,0.0,'2',1.1461036205291748,1.1461036205291748,0.0,54.0
Match Shape,stimuli/MatchShapes.bmp,stimuli/EmptyFace.bmp,stimuli/EmptyFace.bmp,stimuli/EmptyFrame.bmp,stimuli/EmptyFrame.bmp,Null,None,None,3,1,1.0,235.91107177734375,235.91107177734375,0.0,239.90098571777344,239.90098571777344,0.0,238.90357971191406,238.90357971191406,0.0,0.0,0.0,0.0,,,,,55.0
Shape,stimuli/horizontal.bmp,stimuli/horizontal.bmp,stimuli/vertical.bmp,stimuli/EmptyFrame.bmp,stimuli/RedFrame.bmp,1,Shape,None,3,1,1.0,239.93882751464844,239.93882751464844,0.0,243.9123992919922,243.9123992919922,0.0,242.92355346679688,242.92355346679688,0.0,1.0,1.0,0.0,'1',0.8661723732948303,0.8661723732948303,0.0,56.0
Shape,stimuli/horizontal.bmp,stimuli/horizontal.bmp,stimuli/circle.bmp,stimuli/EmptyFrame.bmp,stimuli/RedFrame.bmp,1,Shape,None,3,1,1.0,243.93441772460938,243.93441772460938,0.0,247.92649841308594,247.92649841308594,0.0,246.94357299804688,246.94357299804688,0.0,1.0,1.0,0.0,'1',0.6360669732093811,0.6360669732093811,0.0,57.0
Shape,stimuli/circle.bmp,stimuli/vertical.bmp,stimuli/circle.bmp,stimuli/EmptyFrame.bmp,stimuli/RedFrame.bmp,2,Shape,None,3,1,1.0,247.94989013671875,247.94989013671875,0.0,251.93621826171875,251.93621826171875,0.0,250.95663452148438,250.95663452148438,0.0,1.0,1.0,0.0,'2',1.0133655071258545,1.0133655071258545,0.0,58.0
Shape,stimuli/vertical.bmp,stimuli/vertical.bmp,stimuli/circle.bmp,stimuli/EmptyFrame.bmp,stimuli/RedFrame.bmp,1,Shape,None,3,1,1.0,251.9583282470703,251.9583282470703,0.0,255.95005798339844,255.95005798339844,0.0,254.96014404296875,254.96014404296875,0.0,1.0,1.0,0.0,'1',0.8013079166412354,0.8013079166412354,0.0,59.0
Shape,stimuli/horizontal.bmp,stimuli/horizontal.bmp,stimuli/circle.bmp,stimuli/EmptyFrame.bmp,stimuli/RedFrame.bmp,1,Shape,None,3,1,1.0,255.9693603515625,255.9693603515625,0.0,259.9607238769531,259.9607238769531,0.0,258.9776306152344,258.9776306152344,0.0,1.0,1.0,0.0,'1',0.7582640051841736,0.7582640051841736,0.0,60.0
Shape,stimuli/vertical.bmp,stimuli/vertical.bmp,stimuli/circle.bmp,stimuli/EmptyFrame.bmp,stimuli/RedFrame.bmp,1,Shape,None,3,1,1.0,259.9786682128906,259.9786682128906,0.0,263.9766540527344,263.9766540527344,0.0,262.9862365722656,262.9862365722656,0.0,1.0,1.0,0.0,'1',0.7870063781738281,0.7870063781738281,0.0,61.0
Shape,stimuli/horizontal.bmp,stimuli/circle.bmp,stimuli/horizontal.bmp,stimuli/EmptyFrame.bmp,stimuli/RedFrame.bmp,2,Shape,None,3,1,1.0,264.0027160644531,264.0027160644531,0.0,267.9965515136719,267.9965515136719,0.0,267.0029296875,267.0029296875,0.0,1.0,1.0,0.0,'2',0.8066136240959167,0.8066136240959167,0.0,62.0
Shape,stimuli/circle.bmp,stimuli/circle.bmp,stimuli/horizontal.bmp,stimuli/EmptyFrame.bmp,stimuli/RedFrame.bmp,1,Shape,None,3,1,1.0,268.0150451660156,268.0150451660156,0.0,272.0138244628906,272.0138244628906,0.0,271.02520751953125,271.02520751953125,0.0,1.0,1.0,0.0,'1',0.9521610140800476,0.9521610140800476,0.0,63.0
Shape,stimuli/circle.bmp,stimuli/horizontal.bmp,stimuli/circle.bmp,stimuli/EmptyFrame.bmp,stimuli/RedFrame.bmp,2,Shape,None,3,1,1.0,272.0326232910156,272.0326232910156,0.0,276.0348815917969,276.0348815917969,0.0,275.0508728027344,275.0508728027344,0.0,1.0,1.0,0.0,'2',0.8959819078445435,0.8959819078445435,0.0,64.0
Shape,stimuli/vertical.bmp,stimuli/vertical.bmp,stimuli/horizontal.bmp,stimuli/EmptyFrame.bmp,stimuli/RedFrame.bmp,1,Shape,None,3,1,1.0,276.0557861328125,276.0557861328125,0.0,280.04608154296875,280.04608154296875,0.0,279.0685729980469,279.0685729980469,0.0,1.0,1.0,0.0,'1',0.6660425066947937,0.6660425066947937,0.0,65.0
MatchFaces,stimuli/MatchFaces.bmp,stimuli/EmptyFace.bmp,stimuli/EmptyFace.bmp,stimuli/EmptyFrame.bmp,stimuli/EmptyFrame.bmp,Null,None,None,3,1,1.0,280.1834716796875,280.1834716796875,0.0,284.05426025390625,284.05426025390625,0.0,283.0715637207031,283.0715637207031,0.0,0.0,0.0,0.0,,,,,66.0
Neutral,stimuli/20M_NE_C.BMP,stimuli/21M_NE_C.BMP,stimuli/20M_NE_C.BMP,stimuli/EmptyFrame.bmp,stimuli/RedFrame.bmp,2,Neutral,Male,3,1,1.0,284.1119689941406,284.1119689941406,0.0,288.0699768066406,288.0699768066406,0.0,287.0815734863281,287.0815734863281,0.0,1.0,1.0,0.0,'2',1.504340648651123,1.504340648651123,0.0,67.0
Neutral,stimuli/01F_NE_C.bmp,stimuli/01F_NE_C.bmp,stimuli/02F_NE_C.bmp,stimuli/EmptyFrame.bmp,stimuli/RedFrame.bmp,1,Neutral,Female,3,1,1.0,288.0975036621094,288.0975036621094,0.0,292.0874328613281,292.0874328613281,0.0,291.0962219238281,291.0962219238281,0.0,1.0,1.0,0.0,'1',0.8896409869194031,0.8896409869194031,0.0,68.0
Neutral,stimuli/22M_NE_C.BMP,stimuli/23M_NE_C.BMP,stimuli/22M_NE_C.BMP,stimuli/EmptyFrame.bmp,stimuli/RedFrame.bmp,2,Neutral,Male,3,1,1.0,292.1510314941406,292.1510314941406,0.0,296.11297607421875,296.11297607421875,0.0,295.1228942871094,295.1228942871094,0.0,1.0,1.0,0.0,'2',1.180485725402832,1.180485725402832,0.0,69.0
Neutral,stimuli/24M_NE_C.BMP,stimuli/24M_NE_C.BMP,stimuli/25M_NE_C.BMP,stimuli/EmptyFrame.bmp,stimuli/RedFrame.bmp,1,Neutral,Male,3,1,1.0,296.1371765136719,296.1371765136719,0.0,300.1347961425781,300.1347961425781,0.0,299.1446533203125,299.1446533203125,0.0,1.0,1.0,0.0,'1',1.2719992399215698,1.2719992399215698,0.0,70.0
Neutral,stimuli/03F_NE_C.bmp,stimuli/05F_NE_C.bmp,stimuli/03F_NE_C.bmp,stimuli/EmptyFrame.bmp,stimuli/RedFrame.bmp,2,Neutral,Female,3,1,1.0,300.1624755859375,300.1624755859375,0.0,304.1467590332031,304.1467590332031,0.0,303.16900634765625,303.16900634765625,0.0,1.0,1.0,0.0,'2',1.131611704826355,1.131611704826355,0.0,71.0
Neutral,stimuli/26M_NE_C.BMP,stimuli/26M_NE_C.BMP,stimuli/27M_NE_C.BMP,stimuli/EmptyFrame.bmp,stimuli/RedFrame.bmp,1,Neutral,Male,3,1,1.0,304.17047119140625,304.17047119140625,0.0,308.15869140625,308.15869140625,0.0,307.1811828613281,307.1811828613281,0.0,1.0,1.0,0.0,'1',0.9497863054275513,0.9497863054275513,0.0,72.0
Neutral,stimuli/06F_NE_C.bmp,stimuli/07F_NE_C.BMP,stimuli/06F_NE_C.bmp,stimuli/EmptyFrame.bmp,stimuli/RedFrame.bmp,2,Neutral,Female,3,1,1.0,308.184326171875,308.184326171875,0.0,312.17791748046875,312.17791748046875,0.0,311.1925048828125,311.1925048828125,0.0,1.0,1.0,0.0,'2',0.8476169109344482,0.8476169109344482,0.0,73.0
Neutral,stimuli/08F_NE_C.BMP,stimuli/08F_NE_C.BMP,stimuli/09F_NE_C.BMP,stimuli/EmptyFrame.bmp,stimuli/RedFrame.bmp,1,Neutral,Female,3,1,1.0,312.1981201171875,312.1981201171875,0.0,316.1931457519531,316.1931457519531,0.0,315.2064514160156,315.2064514160156,0.0,1.0,1.0,0.0,'1',0.8536719083786011,0.8536719083786011,0.0,74.0
Neutral,stimuli/28M_NE_C.BMP,stimuli/29M_NE_C.BMP,stimuli/28M_NE_C.BMP,stimuli/EmptyFrame.bmp,stimuli/RedFrame.bmp,2,Neutral,Male,3,1,1.0,316.21502685546875,316.21502685546875,0.0,320.2085876464844,320.2085876464844,0.0,319.2231140136719,319.2231140136719,0.0,1.0,1.0,0.0,'2',1.2411463260650635,1.2411463260650635,0.0,75.0
Neutral,stimuli/10F_NE_C.BMP,stimuli/10F_NE_C.BMP,stimuli/06F_NE_C.bmp,stimuli/EmptyFrame.bmp,stimuli/RedFrame.bmp,1,Neutral,Female,3,1,1.0,320.23004150390625,320.23004150390625,0.0,324.22393798828125,324.22393798828125,0.0,323.2366027832031,323.2366027832031,0.0,1.0,1.0,0.0,'1',0.9462602734565735,0.9462602734565735,0.0,76.0
MatchFaces,stimuli/MatchFaces.bmp,stimuli/EmptyFace.bmp,stimuli/EmptyFace.bmp,stimuli/EmptyFrame.bmp,stimuli/EmptyFrame.bmp,Null,None,None,3,1,1.0,324.3514099121094,324.3514099121094,0.0,328.2288513183594,328.2288513183594,0.0,327.23504638671875,327.23504638671875,0.0,0.0,0.0,0.0,,,,,77.0
Happy,stimuli/28M_HA_O.BMP,stimuli/29M_HA_O.BMP,stimuli/28M_HA_O.BMP,stimuli/EmptyFrame.bmp,stimuli/RedFrame.bmp,2,Happy,Male,3,1,1.0,328.28045654296875,328.28045654296875,0.0,332.24151611328125,332.24151611328125,0.0,331.2613220214844,331.2613220214844,0.0,1.0,1.0,0.0,'2',1.040808916091919,1.040808916091919,0.0,78.0
Happy,stimuli/10F_HA_O.BMP,stimuli/10F_HA_O.BMP,stimuli/06F_HA_O.bmp,stimuli/EmptyFrame.bmp,stimuli/RedFrame.bmp,1,Happy,Female,3,1,1.0,332.26678466796875,332.26678466796875,0.0,336.2549743652344,336.2549743652344,0.0,335.2747497558594,335.2747497558594,0.0,1.0,1.0,0.0,'1',0.8203204274177551,0.8203204274177551,0.0,79.0
Happy,stimuli/26M_HA_O.BMP,stimuli/26M_HA_O.BMP,stimuli/27M_HA_O.BMP,stimuli/EmptyFrame.bmp,stimuli/RedFrame.bmp,1,Happy,Male,3,1,1.0,336.2857666015625,336.2857666015625,0.0,340.28338623046875,340.28338623046875,0.0,339.2810974121094,339.2810974121094,0.0,1.0,1.0,0.0,'1',1.1924606561660767,1.1924606561660767,0.0,80.0
Happy,stimuli/20M_HA_O.BMP,stimuli/21M_HA_O.BMP,stimuli/20M_HA_O.BMP,stimuli/EmptyFrame.bmp,stimuli/RedFrame.bmp,2,Happy,Male,3,1,1.0,340.3157958984375,340.3157958984375,0.0,344.30780029296875,344.30780029296875,0.0,343.3175354003906,343.3175354003906,0.0,1.0,1.0,0.0,'2',1.3315778970718384,1.3315778970718384,0.0,81.0
Happy,stimuli/37M_HA_O.BMP,stimuli/37M_HA_O.BMP,stimuli/36M_HA_O.BMP,stimuli/EmptyFrame.bmp,stimuli/RedFrame.bmp,1,Happy,Male,3,1,1.0,344.337158203125,344.337158203125,0.0,348.3225402832031,348.3225402832031,0.0,347.3417663574219,347.3417663574219,0.0,1.0,1.0,0.0,'1',0.9177590012550354,0.9177590012550354,0.0,82.0
Happy,stimuli/43M_HA_O.BMP,stimuli/42M_HA_O.BMP,stimuli/43M_HA_O.BMP,stimuli/EmptyFrame.bmp,stimuli/RedFrame.bmp,2,Happy,Male,3,1,1.0,348.34686279296875,348.34686279296875,0.0,352.34442138671875,352.34442138671875,0.0,351.3533020019531,351.3533020019531,0.0,1.0,1.0,0.0,'2',1.1573607921600342,1.1573607921600342,0.0,83.0
Happy,stimuli/11F_HA_O.BMP,stimuli/10F_HA_O.BMP,stimuli/11F_HA_O.BMP,stimuli/EmptyFrame.bmp,stimuli/RedFrame.bmp,2,Happy,Female,3,1,1.0,352.37005615234375,352.37005615234375,0.0,356.35870361328125,356.35870361328125,0.0,355.3824768066406,355.3824768066406,0.0,1.0,1.0,0.0,'2',0.9422454237937927,0.9422454237937927,0.0,84.0
Happy,stimuli/17F_HA_O.BMP,stimuli/16F_HA_O.BMP,stimuli/17F_HA_O.BMP,stimuli/EmptyFrame.bmp,stimuli/RedFrame.bmp,2,Happy,Female,3,1,1.0,356.423828125,356.423828125,0.0,360.3820495605469,360.3820495605469,0.0,359.3845520019531,359.3845520019531,0.0,1.0,1.0,0.0,'2',1.1334941387176514,1.1334941387176514,0.0,85.0
Happy,stimuli/15F_HA_O.BMP,stimuli/15F_HA_O.BMP,stimuli/14F_HA_O.BMP,stimuli/EmptyFrame.bmp,stimuli/RedFrame.bmp,1,Happy,Female,3,1,1.0,360.4434814453125,360.4434814453125,0.0,364.4023132324219,364.4023132324219,0.0,363.4169616699219,363.4169616699219,0.0,1.0,1.0,0.0,'1',1.0326613187789917,1.0326613187789917,0.0,86.0
Happy,stimuli/08F_HA_O.BMP,stimuli/08F_HA_O.BMP,stimuli/09F_HA_O.BMP,stimuli/EmptyFrame.bmp,stimuli/RedFrame.bmp,1,Happy,Female,3,1,1.0,364.4299011230469,364.4299011230469,0.0,368.423828125,368.423828125,0.0,367.4314270019531,367.4314270019531,0.0,1.0,1.0,0.0,'1',1.402783751487732,1.402783751487732,0.0,87.0
MatchFaces,stimuli/MatchFaces.bmp,stimuli/EmptyFace.bmp,stimuli/EmptyFace.bmp,stimuli/EmptyFrame.bmp,stimuli/EmptyFrame.bmp,Null,None,None,3,1,1.0,368.5616149902344,368.5616149902344,0.0,372.4259033203125,372.4259033203125,0.0,371.43695068359375,371.43695068359375,0.0,0.0,0.0,0.0,,,,,88.0
Fear,stimuli/34M_FE_O.BMP,stimuli/34M_FE_O.BMP,stimuli/33M_FE_O.BMP,stimuli/EmptyFrame.bmp,stimuli/RedFrame.bmp,1,Fear,Male,3,1,1.0,372.471435546875,372.471435546875,0.0,376.4401550292969,376.4401550292969,0.0,375.4491882324219,375.4491882324219,0.0,1.0,1.0,0.0,'1',1.0274704694747925,1.0274704694747925,0.0,89.0
Fear,stimuli/28M_FE_O.BMP,stimuli/28M_FE_O.BMP,stimuli/25M_FE_O.BMP,stimuli/EmptyFrame.bmp,stimuli/RedFrame.bmp,1,Fear,Male,3,1,1.0,376.4695739746094,376.4695739746094,0.0,380.45928955078125,380.45928955078125,0.0,379.4677429199219,379.4677429199219,0.0,1.0,1.0,0.0,'1',0.9802520275115967,0.9802520275115967,0.0,90.0
Fear,stimuli/11F_FE_O.BMP,stimuli/10F_FE_O.BMP,stimuli/11F_FE_O.BMP,stimuli/EmptyFrame.bmp,stimuli/RedFrame.bmp,2,Fear,Female,3,1,1.0,380.484130859375,380.484130859375,0.0,384.472900390625,384.472900390625,0.0,383.4936218261719,383.4936218261719,0.0,1.0,1.0,0.0,'2',0.724267303943634,0.724267303943634,0.0,91.0
Fear,stimuli/27M_FE_O.BMP,stimuli/26M_FE_O.BMP,stimuli/27M_FE_O.BMP,stimuli/EmptyFrame.bmp,stimuli/RedFrame.bmp,2,Fear,Male,3,1,1.0,384.501708984375,384.501708984375,0.0,388.4892578125,388.4892578125,0.0,387.5042724609375,387.5042724609375,0.0,1.0,1.0,0.0,'2',0.8022441267967224,0.8022441267967224,0.0,92.0
Fear,stimuli/11F_FE_O.BMP,stimuli/12F_FE_O.BMP,stimuli/11F_FE_O.BMP,stimuli/EmptyFrame.bmp,stimuli/RedFrame.bmp,2,Fear,Female,3,1,1.0,388.5133056640625,388.5133056640625,0.0,392.50390625,392.50390625,0.0,391.5145568847656,391.5145568847656,0.0,1.0,1.0,0.0,'2',0.8203957080841064,0.8203957080841064,0.0,93.0
Fear,stimuli/31M_FE_O.BMP,stimuli/31M_FE_O.BMP,stimuli/38M_FE_O.BMP,stimuli/EmptyFrame.bmp,stimuli/RedFrame.bmp,1,Fear,Male,3,1,1.0,392.5369567871094,392.5369567871094,0.0,396.5225830078125,396.5225830078125,0.0,395.5263977050781,395.5263977050781,0.0,1.0,1.0,0.0,'1',0.918888509273529,0.918888509273529,0.0,94.0
Fear,stimuli/29M_FE_O.BMP,stimuli/29M_FE_O.BMP,stimuli/24M_FE_O.BMP,stimuli/EmptyFrame.bmp,stimuli/RedFrame.bmp,1,Fear,Male,3,1,1.0,396.5506896972656,396.5506896972656,0.0,400.5406188964844,400.5406188964844,0.0,399.5560607910156,399.5560607910156,0.0,1.0,1.0,0.0,'1',0.9033836126327515,0.9033836126327515,0.0,95.0
Fear,stimuli/25M_FE_O.BMP,stimuli/29M_FE_O.BMP,stimuli/25M_FE_O.BMP,stimuli/EmptyFrame.bmp,stimuli/RedFrame.bmp,2,Fear,Male,3,1,1.0,400.56170654296875,400.56170654296875,0.0,404.5549011230469,404.5549011230469,0.0,403.5669860839844,403.5669860839844,0.0,1.0,1.0,0.0,'2',0.8681164979934692,0.8681164979934692,0.0,96.0
Fear,stimuli/15F_FE_O.BMP,stimuli/18F_FE_O.BMP,stimuli/15F_FE_O.BMP,stimuli/EmptyFrame.bmp,stimuli/RedFrame.bmp,2,Fear,Female,3,1,1.0,404.581298828125,404.581298828125,0.0,408.5774841308594,408.5774841308594,0.0,407.5859069824219,407.5859069824219,0.0,1.0,1.0,0.0,'2',0.9872031807899475,0.9872031807899475,0.0,97.0
Fear,stimuli/09F_FE_O.BMP,stimuli/09F_FE_O.BMP,stimuli/12F_FE_O.BMP,stimuli/EmptyFrame.bmp,stimuli/RedFrame.bmp,1,Fear,Female,3,1,1.0,408.60308837890625,408.60308837890625,0.0,412.5910949707031,412.5910949707031,0.0,411.59967041015625,411.59967041015625,0.0,1.0,1.0,0.0,'1',0.8140367865562439,0.8140367865562439,0.0,98.0
MatchFaces,stimuli/MatchFaces.bmp,stimuli/EmptyFace.bmp,stimuli/EmptyFace.bmp,stimuli/EmptyFrame.bmp,stimuli/EmptyFrame.bmp,Null,None,None,3,1,1.0,412.7190856933594,412.7190856933594,0.0,416.5999450683594,416.5999450683594,0.0,415.6048583984375,415.6048583984375,0.0,0.0,0.0,0.0,,,,,99.0
Anger,stimuli/23M_AN_O.BMP,stimuli/23M_AN_O.BMP,stimuli/31M_AN_O.BMP,stimuli/EmptyFrame.bmp,stimuli/RedFrame.bmp,1,Anger,Male,3,1,1.0,416.6529235839844,416.6529235839844,0.0,420.61492919921875,420.61492919921875,0.0,419.629638671875,419.629638671875,0.0,1.0,1.0,0.0,'1',0.945637583732605,0.945637583732605,0.0,100.0
Anger,stimuli/36M_AN_O.BMP,stimuli/37M_AN_O.BMP,stimuli/36M_AN_O.BMP,stimuli/EmptyFrame.bmp,stimuli/RedFrame.bmp,2,Anger,Male,3,1,1.0,420.6392822265625,420.6392822265625,0.0,424.626708984375,424.626708984375,0.0,423.6380310058594,423.6380310058594,0.0,1.0,1.0,0.0,'2',0.7284920811653137,0.7284920811653137,0.0,101.0
Anger,stimuli/38M_AN_O.BMP,stimuli/39M_AN_O.BMP,stimuli/38M_AN_O.BMP,stimuli/EmptyFrame.bmp,stimuli/RedFrame.bmp,2,Anger,Male,3,1,1.0,424.6549072265625,424.6549072265625,0.0,428.64483642578125,428.64483642578125,0.0,427.6574401855469,427.6574401855469,0.0,1.0,1.0,0.0,'2',0.8141362071037292,0.8141362071037292,0.0,102.0
Anger,stimuli/02f_an_o.bmp,stimuli/18F_AN_O.BMP,stimuli/02f_an_o.bmp,stimuli/EmptyFrame.bmp,stimuli/RedFrame.bmp,2,Anger,Female,3,1,1.0,428.6729736328125,428.6729736328125,0.0,432.6681823730469,432.6681823730469,0.0,431.6710510253906,431.6710510253906,0.0,1.0,1.0,0.0,'2',0.6932839155197144,0.6932839155197144,0.0,103.0
Anger,stimuli/22M_AN_O.BMP,stimuli/32M_AN_O.BMP,stimuli/22M_AN_O.BMP,stimuli/EmptyFrame.bmp,stimuli/RedFrame.bmp,2,Anger,Male,3,1,1.0,432.6966857910156,432.6966857910156,0.0,436.6844787597656,436.6844787597656,0.0,435.6976623535156,435.6976623535156,0.0,1.0,1.0,0.0,'2',0.8873624801635742,0.8873624801635742,0.0,104.0
Anger,stimuli/12F_AN_O.BMP,stimuli/12F_AN_O.BMP,stimuli/13F_AN_O.BMP,stimuli/EmptyFrame.bmp,stimuli/RedFrame.bmp,1,Anger,Female,3,1,1.0,436.70361328125,436.70361328125,0.0,440.6980285644531,440.6980285644531,0.0,439.7098388671875,439.7098388671875,0.0,1.0,1.0,0.0,'1',0.8020017743110657,0.8020017743110657,0.0,105.0
Anger,stimuli/05F_AN_O.bmp,stimuli/05F_AN_O.bmp,stimuli/16F_AN_O.BMP,stimuli/EmptyFrame.bmp,stimuli/RedFrame.bmp,1,Anger,Female,3,1,1.0,440.7232971191406,440.7232971191406,0.0,444.71832275390625,444.71832275390625,0.0,443.73406982421875,443.73406982421875,0.0,1.0,1.0,0.0,'1',0.8112748861312866,0.8112748861312866,0.0,106.0
Anger,stimuli/21M_AN_O.BMP,stimuli/21M_AN_O.BMP,stimuli/33M_AN_O.BMP,stimuli/EmptyFrame.bmp,stimuli/RedFrame.bmp,1,Anger,Male,3,1,1.0,444.7516784667969,444.7516784667969,0.0,448.7366638183594,448.7366638183594,0.0,447.7487487792969,447.7487487792969,0.0,1.0,1.0,0.0,'1',0.7012820839881897,0.7012820839881897,0.0,107.0
Anger,stimuli/07F_AN_O.BMP,stimuli/07F_AN_O.BMP,stimuli/14F_AN_O.BMP,stimuli/EmptyFrame.bmp,stimuli/RedFrame.bmp,1,Anger,Female,3,1,1.0,448.7644348144531,448.7644348144531,0.0,452.7546081542969,452.7546081542969,0.0,451.7637939453125,451.7637939453125,0.0,1.0,1.0,0.0,'1',0.7208325862884521,0.7208325862884521,0.0,108.0
Anger,stimuli/10F_AN_O.BMP,stimuli/10F_AN_O.BMP,stimuli/11F_AN_O.BMP,stimuli/EmptyFrame.bmp,stimuli/RedFrame.bmp,1,Anger,Female,3,1,1.0,452.78253173828125,452.78253173828125,0.0,456.7700500488281,456.7700500488281,0.0,455.78778076171875,455.78778076171875,0.0,1.0,1.0,0.0,'1',0.9294251203536987,0.9294251203536987,0.0,109.0

extraInfo
participant,sub014
session,001
date,2025_Jun_19_0856
expName,HaririTask_Ver2
psychopyVersion,3.0.1
frameRate,None
