TrialType,Top,Left,Right,EmptyFrame,SelectedFrame,Correct,Emotion,Gender,TrialLength,FixationLength,n,GCFaceStartTime_mean,GCFaceStartTime_raw,GCFaceStartTime_std,GCPostFaceFixationEndTime_mean,GCPostFaceFixationEndTime_raw,GCPostFaceFixationEndTime_std,GCPostFaceFixationStartTime_mean,GCPostFaceFixationStartTime_raw,GCPostFaceFixationStartTime_std,key_resp_trial.corr_mean,key_resp_trial.corr_raw,key_resp_trial.corr_std,key_resp_trial.keys_raw,key_resp_trial.rt_mean,key_resp_trial.rt_raw,key_resp_trial.rt_std,order
MatchFaces,stimuli/MatchFaces.bmp,stimuli/EmptyFace.bmp,stimuli/EmptyFace.bmp,stimuli/EmptyFrame.bmp,stimuli/EmptyFrame.bmp,Null,None,None,3,1,1.0,15.300829887390137,15.300829887390137,0.0,19.054166793823242,19.054166793823242,0.0,18.055646896362305,18.055646896362305,0.0,0.0,0.0,0.0,,,,,0.0
Anger,stimuli/01F_AN_O.bmp,stimuli/19F_AN_O.BMP,stimuli/01F_AN_O.bmp,stimuli/EmptyFrame.bmp,stimuli/RedFrame.bmp,2,Anger,Female,3,1,1.0,19.232440948486328,19.232440948486328,0.0,23.065345764160156,23.065345764160156,0.0,22.085262298583984,22.085262298583984,0.0,1.0,1.0,0.0,'2',0.8716418743133545,0.8716418743133545,0.0,1.0
Anger,stimuli/02f_an_o.bmp,stimuli/18F_AN_O.BMP,stimuli/02f_an_o.bmp,stimuli/EmptyFrame.bmp,stimuli/RedFrame.bmp,2,Anger,Female,3,1,1.0,23.09465217590332,23.09465217590332,0.0,27.081199645996094,27.081199645996094,0.0,26.094589233398438,26.094589233398438,0.0,1.0,1.0,0.0,'2',1.2257689237594604,1.2257689237594604,0.0,2.0
Anger,stimuli/20M_AN_O.BMP,stimuli/34M_AN_O.BMP,stimuli/20M_AN_O.BMP,stimuli/EmptyFrame.bmp,stimuli/RedFrame.bmp,2,Anger,Male,3,1,1.0,27.112016677856445,27.112016677856445,0.0,31.09020233154297,31.09020233154297,0.0,30.10126304626465,30.10126304626465,0.0,1.0,1.0,0.0,'2',1.41585111618042,1.41585111618042,0.0,3.0
Anger,stimuli/03F_AN_O.bmp,stimuli/03F_AN_O.bmp,stimuli/17F_AN_O.BMP,stimuli/EmptyFrame.bmp,stimuli/RedFrame.bmp,1,Anger,Female,3,1,1.0,31.121807098388672,31.121807098388672,0.0,35.105491638183594,35.105491638183594,0.0,34.11041259765625,34.11041259765625,0.0,1.0,1.0,0.0,'1',1.2467385530471802,1.2467385530471802,0.0,4.0
Anger,stimuli/21M_AN_O.BMP,stimuli/21M_AN_O.BMP,stimuli/33M_AN_O.BMP,stimuli/EmptyFrame.bmp,stimuli/RedFrame.bmp,1,Anger,Male,3,1,1.0,35.135494232177734,35.135494232177734,0.0,39.124732971191406,39.124732971191406,0.0,38.1368293762207,38.1368293762207,0.0,1.0,1.0,0.0,'1',1.3850703239440918,1.3850703239440918,0.0,5.0
Anger,stimuli/22M_AN_O.BMP,stimuli/32M_AN_O.BMP,stimuli/22M_AN_O.BMP,stimuli/EmptyFrame.bmp,stimuli/RedFrame.bmp,2,Anger,Male,3,1,1.0,39.155128479003906,39.155128479003906,0.0,43.1422233581543,43.1422233581543,0.0,42.15845489501953,42.15845489501953,0.0,1.0,1.0,0.0,'2',1.370846152305603,1.370846152305603,0.0,6.0
Anger,stimuli/23M_AN_O.BMP,stimuli/23M_AN_O.BMP,stimuli/31M_AN_O.BMP,stimuli/EmptyFrame.bmp,stimuli/RedFrame.bmp,1,Anger,Male,3,1,1.0,43.17198944091797,43.17198944091797,0.0,47.154842376708984,47.154842376708984,0.0,46.172119140625,46.172119140625,0.0,1.0,1.0,0.0,'1',1.3145114183425903,1.3145114183425903,0.0,7.0
Anger,stimuli/05F_AN_O.bmp,stimuli/05F_AN_O.bmp,stimuli/16F_AN_O.BMP,stimuli/EmptyFrame.bmp,stimuli/RedFrame.bmp,1,Anger,Female,3,1,1.0,47.186309814453125,47.186309814453125,0.0,51.172237396240234,51.172237396240234,0.0,50.1744499206543,50.1744499206543,0.0,1.0,1.0,0.0,'1',1.33316969871521,1.33316969871521,0.0,8.0
Anger,stimuli/06F_AN_O.bmp,stimuli/15F_AN_O.BMP,stimuli/06F_AN_O.bmp,stimuli/EmptyFrame.bmp,stimuli/RedFrame.bmp,2,Anger,Female,3,1,1.0,51.20226287841797,51.20226287841797,0.0,55.191890716552734,55.191890716552734,0.0,54.204105377197266,54.204105377197266,0.0,1.0,1.0,0.0,'2',1.2552870512008667,1.2552870512008667,0.0,9.0
Anger,stimuli/24M_AN_O.BMP,stimuli/24M_AN_O.BMP,stimuli/30M_AN_O.BMP,stimuli/EmptyFrame.bmp,stimuli/RedFrame.bmp,1,Anger,Male,3,1,1.0,55.22354507446289,55.22354507446289,0.0,59.2066535949707,59.2066535949707,0.0,58.22140121459961,58.22140121459961,0.0,1.0,1.0,0.0,'1',1.077243447303772,1.077243447303772,0.0,10.0
MatchShape,stimuli/MatchShapes.bmp,stimuli/EmptyFace.bmp,stimuli/EmptyFace.bmp,stimuli/EmptyFrame.bmp,stimuli/EmptyFrame.bmp,Null,None,None,3,1,1.0,59.23859786987305,59.23859786987305,0.0,63.20816421508789,63.20816421508789,0.0,62.213497161865234,62.213497161865234,0.0,0.0,0.0,0.0,,,,,11.0
Shape,stimuli/horizontal.bmp,stimuli/horizontal.bmp,stimuli/circle.bmp,stimuli/EmptyFrame.bmp,stimuli/RedFrame.bmp,1,Shape,None,3,1,1.0,63.24541091918945,63.24541091918945,0.0,67.22801208496094,67.22801208496094,0.0,66.23578643798828,66.23578643798828,0.0,1.0,1.0,0.0,'1',0.9082465171813965,0.9082465171813965,0.0,12.0
Shape,stimuli/vertical.bmp,stimuli/horizontal.bmp,stimuli/vertical.bmp,stimuli/EmptyFrame.bmp,stimuli/RedFrame.bmp,2,Shape,None,3,1,1.0,67.25366973876953,67.25366973876953,0.0,71.2408218383789,71.2408218383789,0.0,70.25712585449219,70.25712585449219,0.0,1.0,1.0,0.0,'2',0.9491704702377319,0.9491704702377319,0.0,13.0
Shape,stimuli/horizontal.bmp,stimuli/horizontal.bmp,stimuli/vertical.bmp,stimuli/EmptyFrame.bmp,stimuli/RedFrame.bmp,1,Shape,None,3,1,1.0,71.26400756835938,71.26400756835938,0.0,75.25819396972656,75.25819396972656,0.0,74.26695251464844,74.26695251464844,0.0,1.0,1.0,0.0,'1',0.8035191893577576,0.8035191893577576,0.0,14.0
Shape,stimuli/horizontal.bmp,stimuli/circle.bmp,stimuli/horizontal.bmp,stimuli/EmptyFrame.bmp,stimuli/RedFrame.bmp,2,Shape,None,3,1,1.0,75.2809829711914,75.2809829711914,0.0,79.27079010009766,79.27079010009766,0.0,78.28760528564453,78.28760528564453,0.0,1.0,1.0,0.0,'2',1.0546408891677856,1.0546408891677856,0.0,15.0
Shape,stimuli/circle.bmp,stimuli/circle.bmp,stimuli/vertical.bmp,stimuli/EmptyFrame.bmp,stimuli/RedFrame.bmp,1,Shape,None,3,1,1.0,79.29518127441406,79.29518127441406,0.0,83.29277801513672,83.29277801513672,0.0,82.30367279052734,82.30367279052734,0.0,1.0,1.0,0.0,'1',1.0391886234283447,1.0391886234283447,0.0,16.0
Shape,stimuli/circle.bmp,stimuli/circle.bmp,stimuli/horizontal.bmp,stimuli/EmptyFrame.bmp,stimuli/RedFrame.bmp,1,Shape,None,3,1,1.0,83.3183822631836,83.3183822631836,0.0,87.31291961669922,87.31291961669922,0.0,86.31773376464844,86.31773376464844,0.0,1.0,1.0,0.0,'1',0.6883170008659363,0.6883170008659363,0.0,17.0
Shape,stimuli/vertical.bmp,stimuli/circle.bmp,stimuli/vertical.bmp,stimuli/EmptyFrame.bmp,stimuli/RedFrame.bmp,2,Shape,None,3,1,1.0,87.33642578125,87.33642578125,0.0,91.33453369140625,91.33453369140625,0.0,90.344482421875,90.344482421875,0.0,1.0,1.0,0.0,'2',0.7661095261573792,0.7661095261573792,0.0,18.0
Shape,stimuli/circle.bmp,stimuli/vertical.bmp,stimuli/circle.bmp,stimuli/EmptyFrame.bmp,stimuli/RedFrame.bmp,2,Shape,None,3,1,1.0,91.3595962524414,91.3595962524414,0.0,95.34296417236328,95.34296417236328,0.0,94.35791778564453,94.35791778564453,0.0,1.0,1.0,0.0,'2',0.8574193716049194,0.8574193716049194,0.0,19.0
Shape,stimuli/vertical.bmp,stimuli/horizontal.bmp,stimuli/vertical.bmp,stimuli/EmptyFrame.bmp,stimuli/RedFrame.bmp,2,Shape,None,3,1,1.0,95.36431121826172,95.36431121826172,0.0,99.35490417480469,99.35490417480469,0.0,98.3682632446289,98.3682632446289,0.0,1.0,1.0,0.0,'2',1.1058534383773804,1.1058534383773804,0.0,20.0
Shape,stimuli/vertical.bmp,stimuli/vertical.bmp,stimuli/circle.bmp,stimuli/EmptyFrame.bmp,stimuli/RedFrame.bmp,1,Shape,None,3,1,1.0,99.37879943847656,99.37879943847656,0.0,103.37430572509766,103.37430572509766,0.0,102.39127349853516,102.39127349853516,0.0,1.0,1.0,0.0,'1',0.7595927715301514,0.7595927715301514,0.0,21.0
MatchFaces,stimuli/MatchFaces.bmp,stimuli/EmptyFace.bmp,stimuli/EmptyFace.bmp,stimuli/EmptyFrame.bmp,stimuli/EmptyFrame.bmp,Null,None,None,3,1,1.0,103.59378051757812,103.59378051757812,0.0,107.38426971435547,107.38426971435547,0.0,106.38475036621094,106.38475036621094,0.0,0.0,0.0,0.0,,,,,22.0
Neutral,stimuli/20M_NE_C.BMP,stimuli/21M_NE_C.BMP,stimuli/20M_NE_C.BMP,stimuli/EmptyFrame.bmp,stimuli/RedFrame.bmp,2,Neutral,Male,3,1,1.0,107.44294738769531,107.44294738769531,0.0,111.39900970458984,111.39900970458984,0.0,110.41045379638672,110.41045379638672,0.0,1.0,1.0,0.0,'2',2.0469350814819336,2.0469350814819336,0.0,23.0
Neutral,stimuli/01F_NE_C.bmp,stimuli/01F_NE_C.bmp,stimuli/02F_NE_C.bmp,stimuli/EmptyFrame.bmp,stimuli/RedFrame.bmp,1,Neutral,Female,3,1,1.0,111.43108367919922,111.43108367919922,0.0,115.4195327758789,115.4195327758789,0.0,114.42864990234375,114.42864990234375,0.0,1.0,1.0,0.0,'1',0.9735462069511414,0.9735462069511414,0.0,24.0
Neutral,stimuli/22M_NE_C.BMP,stimuli/23M_NE_C.BMP,stimuli/22M_NE_C.BMP,stimuli/EmptyFrame.bmp,stimuli/RedFrame.bmp,2,Neutral,Male,3,1,1.0,115.44754791259766,115.44754791259766,0.0,119.42938995361328,119.42938995361328,0.0,118.45050048828125,118.45050048828125,0.0,1.0,1.0,0.0,'2',1.274619460105896,1.274619460105896,0.0,25.0
Neutral,stimuli/24M_NE_C.BMP,stimuli/24M_NE_C.BMP,stimuli/25M_NE_C.BMP,stimuli/EmptyFrame.bmp,stimuli/RedFrame.bmp,1,Neutral,Male,3,1,1.0,119.4578857421875,119.4578857421875,0.0,123.4487075805664,123.4487075805664,0.0,122.46117401123047,122.46117401123047,0.0,1.0,1.0,0.0,'1',1.2009881734848022,1.2009881734848022,0.0,26.0
Neutral,stimuli/03F_NE_C.bmp,stimuli/05F_NE_C.bmp,stimuli/03F_NE_C.bmp,stimuli/EmptyFrame.bmp,stimuli/RedFrame.bmp,2,Neutral,Female,3,1,1.0,123.47762298583984,123.47762298583984,0.0,127.46939086914062,127.46939086914062,0.0,126.47103118896484,126.47103118896484,0.0,1.0,1.0,0.0,'2',1.2287282943725586,1.2287282943725586,0.0,27.0
Neutral,stimuli/26M_NE_C.BMP,stimuli/26M_NE_C.BMP,stimuli/27M_NE_C.BMP,stimuli/EmptyFrame.bmp,stimuli/RedFrame.bmp,1,Neutral,Male,3,1,1.0,127.4973373413086,127.4973373413086,0.0,131.48760986328125,131.48760986328125,0.0,130.50079345703125,130.50079345703125,0.0,1.0,1.0,0.0,'1',0.9596933126449585,0.9596933126449585,0.0,28.0
Neutral,stimuli/06F_NE_C.bmp,stimuli/07F_NE_C.BMP,stimuli/06F_NE_C.bmp,stimuli/EmptyFrame.bmp,stimuli/RedFrame.bmp,2,Neutral,Female,3,1,1.0,131.5148468017578,131.5148468017578,0.0,135.50128173828125,135.50128173828125,0.0,134.5207061767578,134.5207061767578,0.0,1.0,1.0,0.0,'2',1.1617028713226318,1.1617028713226318,0.0,29.0
Neutral,stimuli/08F_NE_C.BMP,stimuli/08F_NE_C.BMP,stimuli/09F_NE_C.BMP,stimuli/EmptyFrame.bmp,stimuli/RedFrame.bmp,1,Neutral,Female,3,1,1.0,135.5265350341797,135.5265350341797,0.0,139.51815795898438,139.51815795898438,0.0,138.5308074951172,138.5308074951172,0.0,1.0,1.0,0.0,'1',1.5630879402160645,1.5630879402160645,0.0,30.0
Neutral,stimuli/28M_NE_C.BMP,stimuli/29M_NE_C.BMP,stimuli/28M_NE_C.BMP,stimuli/EmptyFrame.bmp,stimuli/RedFrame.bmp,2,Neutral,Male,3,1,1.0,139.5487518310547,139.5487518310547,0.0,143.53097534179688,143.53097534179688,0.0,142.54127502441406,142.54127502441406,0.0,1.0,1.0,0.0,'2',1.605209469795227,1.605209469795227,0.0,31.0
Neutral,stimuli/10F_NE_C.BMP,stimuli/10F_NE_C.BMP,stimuli/06F_NE_C.bmp,stimuli/EmptyFrame.bmp,stimuli/RedFrame.bmp,1,Neutral,Female,3,1,1.0,143.5564422607422,143.5564422607422,0.0,147.54403686523438,147.54403686523438,0.0,146.57029724121094,146.57029724121094,0.0,1.0,1.0,0.0,'1',1.2081319093704224,1.2081319093704224,0.0,32.0
MatchFaces,stimuli/MatchFaces.bmp,stimuli/EmptyFace.bmp,stimuli/EmptyFace.bmp,stimuli/EmptyFrame.bmp,stimuli/EmptyFrame.bmp,Null,None,None,3,1,1.0,147.75485229492188,147.75485229492188,0.0,151.54995727539062,151.54995727539062,0.0,150.55044555664062,150.55044555664062,0.0,0.0,0.0,0.0,,,,,33.0
Fear,stimuli/07F_FE_O.BMP,stimuli/07F_FE_O.BMP,stimuli/14F_FE_O.BMP,stimuli/EmptyFrame.bmp,stimuli/RedFrame.bmp,1,Fear,Female,3,1,1.0,151.60104370117188,151.60104370117188,0.0,155.56695556640625,155.56695556640625,0.0,154.57289123535156,154.57289123535156,0.0,1.0,1.0,0.0,'1',1.6608272790908813,1.6608272790908813,0.0,34.0
Fear,stimuli/25M_FE_O.BMP,stimuli/29M_FE_O.BMP,stimuli/25M_FE_O.BMP,stimuli/EmptyFrame.bmp,stimuli/RedFrame.bmp,2,Fear,Male,3,1,1.0,155.5919189453125,155.5919189453125,0.0,159.58633422851562,159.58633422851562,0.0,158.58984375,158.58984375,0.0,1.0,1.0,0.0,'2',1.7474336624145508,1.7474336624145508,0.0,35.0
Fear,stimuli/26M_FE_O.BMP,stimuli/26M_FE_O.BMP,stimuli/28M_FE_O.BMP,stimuli/EmptyFrame.bmp,stimuli/RedFrame.bmp,1,Fear,Male,3,1,1.0,159.6111602783203,159.6111602783203,0.0,163.5947265625,163.5947265625,0.0,162.61587524414062,162.61587524414062,0.0,1.0,1.0,0.0,'1',1.347938060760498,1.347938060760498,0.0,36.0
Fear,stimuli/08F_FE_O.BMP,stimuli/13F_FE_O.BMP,stimuli/08F_FE_O.BMP,stimuli/EmptyFrame.bmp,stimuli/RedFrame.bmp,2,Fear,Female,3,1,1.0,163.62899780273438,163.62899780273438,0.0,167.6145477294922,167.6145477294922,0.0,166.61990356445312,166.61990356445312,0.0,1.0,1.0,0.0,'2',1.2793941497802734,1.2793941497802734,0.0,37.0
Fear,stimuli/09F_FE_O.BMP,stimuli/09F_FE_O.BMP,stimuli/12F_FE_O.BMP,stimuli/EmptyFrame.bmp,stimuli/RedFrame.bmp,1,Fear,Female,3,1,1.0,167.6396484375,167.6396484375,0.0,171.62351989746094,171.62351989746094,0.0,170.63999938964844,170.63999938964844,0.0,1.0,1.0,0.0,'1',1.2618674039840698,1.2618674039840698,0.0,38.0
Fear,stimuli/27M_FE_O.BMP,stimuli/26M_FE_O.BMP,stimuli/27M_FE_O.BMP,stimuli/EmptyFrame.bmp,stimuli/RedFrame.bmp,2,Fear,Male,3,1,1.0,171.6529083251953,171.6529083251953,0.0,175.63963317871094,175.63963317871094,0.0,174.65834045410156,174.65834045410156,0.0,1.0,1.0,0.0,'2',1.140150547027588,1.140150547027588,0.0,39.0
Fear,stimuli/28M_FE_O.BMP,stimuli/28M_FE_O.BMP,stimuli/25M_FE_O.BMP,stimuli/EmptyFrame.bmp,stimuli/RedFrame.bmp,1,Fear,Male,3,1,1.0,175.66265869140625,175.66265869140625,0.0,179.65106201171875,179.65106201171875,0.0,178.6707000732422,178.6707000732422,0.0,1.0,1.0,0.0,'1',1.1830750703811646,1.1830750703811646,0.0,40.0
Fear,stimuli/10F_FE_O.BMP,stimuli/11F_FE_O.BMP,stimuli/10F_FE_O.BMP,stimuli/EmptyFrame.bmp,stimuli/RedFrame.bmp,2,Fear,Female,3,1,1.0,179.67376708984375,179.67376708984375,0.0,183.6636199951172,183.6636199951172,0.0,182.68206787109375,182.68206787109375,0.0,1.0,1.0,0.0,'2',1.0030975341796875,1.0030975341796875,0.0,41.0
Fear,stimuli/29M_FE_O.BMP,stimuli/29M_FE_O.BMP,stimuli/24M_FE_O.BMP,stimuli/EmptyFrame.bmp,stimuli/RedFrame.bmp,1,Fear,Male,3,1,1.0,183.6948699951172,183.6948699951172,0.0,187.68710327148438,187.68710327148438,0.0,186.68606567382812,186.68606567382812,0.0,1.0,1.0,0.0,'1',1.0625227689743042,1.0625227689743042,0.0,42.0
Fear,stimuli/11F_FE_O.BMP,stimuli/10F_FE_O.BMP,stimuli/11F_FE_O.BMP,stimuli/EmptyFrame.bmp,stimuli/RedFrame.bmp,2,Fear,Female,3,1,1.0,187.7070770263672,187.7070770263672,0.0,191.69638061523438,191.69638061523438,0.0,190.71792602539062,190.71792602539062,0.0,1.0,1.0,0.0,'2',1.018568515777588,1.018568515777588,0.0,43.0
MatchFaces,stimuli/MatchFaces.bmp,stimuli/EmptyFace.bmp,stimuli/EmptyFace.bmp,stimuli/EmptyFrame.bmp,stimuli/EmptyFrame.bmp,Null,None,None,3,1,1.0,191.87437438964844,191.87437438964844,0.0,195.70001220703125,195.70001220703125,0.0,194.7044677734375,194.7044677734375,0.0,0.0,0.0,0.0,,,,,44.0
Happy,stimuli/19F_HA_O.BMP,stimuli/19F_HA_O.BMP,stimuli/18F_HA_O.BMP,stimuli/EmptyFrame.bmp,stimuli/RedFrame.bmp,1,Happy,Female,3,1,1.0,195.75880432128906,195.75880432128906,0.0,199.71121215820312,199.71121215820312,0.0,198.73455810546875,198.73455810546875,0.0,1.0,1.0,0.0,'1',0.9174553751945496,0.9174553751945496,0.0,45.0
Happy,stimuli/17F_HA_O.BMP,stimuli/16F_HA_O.BMP,stimuli/17F_HA_O.BMP,stimuli/EmptyFrame.bmp,stimuli/RedFrame.bmp,2,Happy,Female,3,1,1.0,199.73968505859375,199.73968505859375,0.0,203.72476196289062,203.72476196289062,0.0,202.7384033203125,202.7384033203125,0.0,1.0,1.0,0.0,'2',1.0440189838409424,1.0440189838409424,0.0,46.0
Happy,stimuli/43M_HA_O.BMP,stimuli/42M_HA_O.BMP,stimuli/43M_HA_O.BMP,stimuli/EmptyFrame.bmp,stimuli/RedFrame.bmp,2,Happy,Male,3,1,1.0,203.7509002685547,203.7509002685547,0.0,207.74073791503906,207.74073791503906,0.0,206.7573699951172,206.7573699951172,0.0,1.0,1.0,0.0,'2',0.9787768721580505,0.9787768721580505,0.0,47.0
Happy,stimuli/41M_HA_O.BMP,stimuli/41M_HA_O.BMP,stimuli/40M_HA_O.BMP,stimuli/EmptyFrame.bmp,stimuli/RedFrame.bmp,1,Happy,Male,3,1,1.0,207.8017120361328,207.8017120361328,0.0,211.75633239746094,211.75633239746094,0.0,210.7706298828125,210.7706298828125,0.0,1.0,1.0,0.0,'1',1.153727650642395,1.153727650642395,0.0,48.0
Happy,stimuli/15F_HA_O.BMP,stimuli/15F_HA_O.BMP,stimuli/14F_HA_O.BMP,stimuli/EmptyFrame.bmp,stimuli/RedFrame.bmp,1,Happy,Female,3,1,1.0,211.78546142578125,211.78546142578125,0.0,215.76795959472656,215.76795959472656,0.0,214.7875213623047,214.7875213623047,0.0,1.0,1.0,0.0,'1',1.4169459342956543,1.4169459342956543,0.0,49.0
Happy,stimuli/13F_HA_O.BMP,stimuli/13F_HA_O.BMP,stimuli/12F_HA_O.BMP,stimuli/EmptyFrame.bmp,stimuli/RedFrame.bmp,1,Happy,Female,3,1,1.0,215.79347229003906,215.79347229003906,0.0,219.78260803222656,219.78260803222656,0.0,218.8000030517578,218.8000030517578,0.0,1.0,1.0,0.0,'1',1.3831390142440796,1.3831390142440796,0.0,50.0
Happy,stimuli/39M_HA_O.BMP,stimuli/38M_HA_O.BMP,stimuli/39M_HA_O.BMP,stimuli/EmptyFrame.bmp,stimuli/RedFrame.bmp,2,Happy,Male,3,1,1.0,219.8065643310547,219.8065643310547,0.0,223.80230712890625,223.80230712890625,0.0,222.8046875,222.8046875,0.0,1.0,1.0,0.0,'2',1.4251729249954224,1.4251729249954224,0.0,51.0
Happy,stimuli/37M_HA_O.BMP,stimuli/37M_HA_O.BMP,stimuli/36M_HA_O.BMP,stimuli/EmptyFrame.bmp,stimuli/RedFrame.bmp,1,Happy,Male,3,1,1.0,223.83056640625,223.83056640625,0.0,227.8238067626953,227.8238067626953,0.0,226.83355712890625,226.83355712890625,0.0,1.0,1.0,0.0,'1',1.203587532043457,1.203587532043457,0.0,52.0
Happy,stimuli/35M_HA_O.BMP,stimuli/34M_HA_O.BMP,stimuli/35M_HA_O.BMP,stimuli/EmptyFrame.bmp,stimuli/RedFrame.bmp,2,Happy,Male,3,1,1.0,227.85240173339844,227.85240173339844,0.0,231.841552734375,231.841552734375,0.0,230.8603973388672,230.8603973388672,0.0,1.0,1.0,0.0,'2',1.4136364459991455,1.4136364459991455,0.0,53.0
Happy,stimuli/11F_HA_O.BMP,stimuli/10F_HA_O.BMP,stimuli/11F_HA_O.BMP,stimuli/EmptyFrame.bmp,stimuli/RedFrame.bmp,2,Happy,Female,3,1,1.0,231.8706817626953,231.8706817626953,0.0,235.8621063232422,235.8621063232422,0.0,234.870361328125,234.870361328125,0.0,1.0,1.0,0.0,'2',1.173513650894165,1.173513650894165,0.0,54.0
Match Shape,stimuli/MatchShapes.bmp,stimuli/EmptyFace.bmp,stimuli/EmptyFace.bmp,stimuli/EmptyFrame.bmp,stimuli/EmptyFrame.bmp,Null,None,None,3,1,1.0,235.88816833496094,235.88816833496094,0.0,239.8649444580078,239.8649444580078,0.0,238.88218688964844,238.88218688964844,0.0,0.0,0.0,0.0,,,,,55.0
Shape,stimuli/circle.bmp,stimuli/vertical.bmp,stimuli/circle.bmp,stimuli/EmptyFrame.bmp,stimuli/RedFrame.bmp,2,Shape,None,3,1,1.0,239.89552307128906,239.89552307128906,0.0,243.89895629882812,243.89895629882812,0.0,242.89280700683594,242.89280700683594,0.0,1.0,1.0,0.0,'2',0.8924064040184021,0.8924064040184021,0.0,56.0
Shape,stimuli/horizontal.bmp,stimuli/circle.bmp,stimuli/horizontal.bmp,stimuli/EmptyFrame.bmp,stimuli/RedFrame.bmp,2,Shape,None,3,1,1.0,243.9263916015625,243.9263916015625,0.0,247.9099884033203,247.9099884033203,0.0,246.93023681640625,246.93023681640625,0.0,1.0,1.0,0.0,'2',0.9350069761276245,0.9350069761276245,0.0,57.0
Shape,stimuli/vertical.bmp,stimuli/vertical.bmp,stimuli/horizontal.bmp,stimuli/EmptyFrame.bmp,stimuli/RedFrame.bmp,1,Shape,None,3,1,1.0,247.934326171875,247.934326171875,0.0,251.93209838867188,251.93209838867188,0.0,250.94154357910156,250.94154357910156,0.0,1.0,1.0,0.0,'1',0.9544665217399597,0.9544665217399597,0.0,58.0
Shape,stimuli/horizontal.bmp,stimuli/circle.bmp,stimuli/horizontal.bmp,stimuli/EmptyFrame.bmp,stimuli/RedFrame.bmp,2,Shape,None,3,1,1.0,251.95542907714844,251.95542907714844,0.0,255.95071411132812,255.95071411132812,0.0,254.96348571777344,254.96348571777344,0.0,1.0,1.0,0.0,'2',0.9870157241821289,0.9870157241821289,0.0,59.0
Shape,stimuli/horizontal.bmp,stimuli/horizontal.bmp,stimuli/vertical.bmp,stimuli/EmptyFrame.bmp,stimuli/RedFrame.bmp,1,Shape,None,3,1,1.0,255.97213745117188,255.97213745117188,0.0,259.9642639160156,259.9642639160156,0.0,258.9738464355469,258.9738464355469,0.0,1.0,1.0,0.0,'1',0.9047690033912659,0.9047690033912659,0.0,60.0
Shape,stimuli/vertical.bmp,stimuli/vertical.bmp,stimuli/circle.bmp,stimuli/EmptyFrame.bmp,stimuli/RedFrame.bmp,1,Shape,None,3,1,1.0,259.98748779296875,259.98748779296875,0.0,263.9843444824219,263.9843444824219,0.0,262.98529052734375,262.98529052734375,0.0,1.0,1.0,0.0,'1',0.899622917175293,0.899622917175293,0.0,61.0
Shape,stimuli/circle.bmp,stimuli/horizontal.bmp,stimuli/circle.bmp,stimuli/EmptyFrame.bmp,stimuli/RedFrame.bmp,2,Shape,None,3,1,1.0,264.0060729980469,264.0060729980469,0.0,267.993896484375,267.993896484375,0.0,267.0101013183594,267.0101013183594,0.0,1.0,1.0,0.0,'2',1.0849112272262573,1.0849112272262573,0.0,62.0
Shape,stimuli/circle.bmp,stimuli/vertical.bmp,stimuli/circle.bmp,stimuli/EmptyFrame.bmp,stimuli/RedFrame.bmp,2,Shape,None,3,1,1.0,268.01708984375,268.01708984375,0.0,272.00537109375,272.00537109375,0.0,271.02032470703125,271.02032470703125,0.0,1.0,1.0,0.0,'2',0.8937386274337769,0.8937386274337769,0.0,63.0
Shape,stimuli/vertical.bmp,stimuli/vertical.bmp,stimuli/horizontal.bmp,stimuli/EmptyFrame.bmp,stimuli/RedFrame.bmp,1,Shape,None,3,1,1.0,272.028076171875,272.028076171875,0.0,276.025390625,276.025390625,0.0,275.03076171875,275.03076171875,0.0,1.0,1.0,0.0,'1',0.9085375070571899,0.9085375070571899,0.0,64.0
Shape,stimuli/horizontal.bmp,stimuli/horizontal.bmp,stimuli/circle.bmp,stimuli/EmptyFrame.bmp,stimuli/RedFrame.bmp,1,Shape,None,3,1,1.0,276.0521240234375,276.0521240234375,0.0,280.0464782714844,280.0464782714844,0.0,279.05419921875,279.05419921875,0.0,1.0,1.0,0.0,'1',0.7255719900131226,0.7255719900131226,0.0,65.0
MatchFaces,stimuli/MatchFaces.bmp,stimuli/EmptyFace.bmp,stimuli/EmptyFace.bmp,stimuli/EmptyFrame.bmp,stimuli/EmptyFrame.bmp,Null,None,None,3,1,1.0,280.2393798828125,280.2393798828125,0.0,284.0489196777344,284.0489196777344,0.0,283.0549621582031,283.0549621582031,0.0,0.0,0.0,0.0,,,,,66.0
Anger,stimuli/42M_AN_O.BMP,stimuli/42M_AN_O.BMP,stimuli/43M_AN_O.BMP,stimuli/EmptyFrame.bmp,stimuli/RedFrame.bmp,1,Anger,Male,3,1,1.0,284.11614990234375,284.11614990234375,0.0,288.0686340332031,288.0686340332031,0.0,287.08074951171875,287.08074951171875,0.0,1.0,1.0,0.0,'1',1.3686310052871704,1.3686310052871704,0.0,67.0
Anger,stimuli/07F_AN_O.BMP,stimuli/07F_AN_O.BMP,stimuli/14F_AN_O.BMP,stimuli/EmptyFrame.bmp,stimuli/RedFrame.bmp,1,Anger,Female,3,1,1.0,288.0984802246094,288.0984802246094,0.0,292.09100341796875,292.09100341796875,0.0,291.0963134765625,291.0963134765625,0.0,1.0,1.0,0.0,'1',1.0781267881393433,1.0781267881393433,0.0,68.0
Anger,stimuli/40M_AN_O.BMP,stimuli/41M_AN_O.BMP,stimuli/40M_AN_O.BMP,stimuli/EmptyFrame.bmp,stimuli/RedFrame.bmp,2,Anger,Male,3,1,1.0,292.12310791015625,292.12310791015625,0.0,296.1138000488281,296.1138000488281,0.0,295.1258239746094,295.1258239746094,0.0,1.0,1.0,0.0,'2',0.951927125453949,0.951927125453949,0.0,69.0
Anger,stimuli/38M_AN_O.BMP,stimuli/39M_AN_O.BMP,stimuli/38M_AN_O.BMP,stimuli/EmptyFrame.bmp,stimuli/RedFrame.bmp,2,Anger,Male,3,1,1.0,296.1431579589844,296.1431579589844,0.0,300.1297912597656,300.1297912597656,0.0,299.1430358886719,299.1430358886719,0.0,1.0,1.0,0.0,'2',1.3885159492492676,1.3885159492492676,0.0,70.0
Anger,stimuli/08F_AN_O.BMP,stimuli/08F_AN_O.BMP,stimuli/13F_AN_O.BMP,stimuli/EmptyFrame.bmp,stimuli/RedFrame.bmp,1,Anger,Female,3,1,1.0,300.1574401855469,300.1574401855469,0.0,304.1487121582031,304.1487121582031,0.0,303.15704345703125,303.15704345703125,0.0,1.0,1.0,0.0,'1',0.9326335191726685,0.9326335191726685,0.0,71.0
Anger,stimuli/36M_AN_O.BMP,stimuli/37M_AN_O.BMP,stimuli/36M_AN_O.BMP,stimuli/EmptyFrame.bmp,stimuli/RedFrame.bmp,2,Anger,Male,3,1,1.0,304.1766662597656,304.1766662597656,0.0,308.1648254394531,308.1648254394531,0.0,307.182373046875,307.182373046875,0.0,1.0,1.0,0.0,'2',1.1750534772872925,1.1750534772872925,0.0,72.0
Anger,stimuli/09F_AN_O.BMP,stimuli/12F_AN_O.BMP,stimuli/09F_AN_O.BMP,stimuli/EmptyFrame.bmp,stimuli/RedFrame.bmp,2,Anger,Female,3,1,1.0,308.19378662109375,308.19378662109375,0.0,312.18670654296875,312.18670654296875,0.0,311.1932067871094,311.1932067871094,0.0,1.0,1.0,0.0,'2',1.0102938413619995,1.0102938413619995,0.0,73.0
Anger,stimuli/34M_AN_O.BMP,stimuli/35M_AN_O.BMP,stimuli/34M_AN_O.BMP,stimuli/EmptyFrame.bmp,stimuli/RedFrame.bmp,2,Anger,Male,3,1,1.0,312.213623046875,312.213623046875,0.0,316.2022705078125,316.2022705078125,0.0,315.2105712890625,315.2105712890625,0.0,1.0,1.0,0.0,'2',0.9732316136360168,0.9732316136360168,0.0,74.0
Anger,stimuli/10F_AN_O.BMP,stimuli/10F_AN_O.BMP,stimuli/11F_AN_O.BMP,stimuli/EmptyFrame.bmp,stimuli/RedFrame.bmp,1,Anger,Female,3,1,1.0,316.228759765625,316.228759765625,0.0,320.22076416015625,320.22076416015625,0.0,319.2345886230469,319.2345886230469,0.0,1.0,1.0,0.0,'1',1.028220534324646,1.028220534324646,0.0,75.0
Anger,stimuli/12F_AN_O.BMP,stimuli/12F_AN_O.BMP,stimuli/13F_AN_O.BMP,stimuli/EmptyFrame.bmp,stimuli/RedFrame.bmp,1,Anger,Female,3,1,1.0,320.2467346191406,320.2467346191406,0.0,324.2316589355469,324.2316589355469,0.0,323.25732421875,323.25732421875,0.0,1.0,1.0,0.0,'1',0.8720638155937195,0.8720638155937195,0.0,76.0
MatchFaces,stimuli/MatchFaces.bmp,stimuli/EmptyFace.bmp,stimuli/EmptyFace.bmp,stimuli/EmptyFrame.bmp,stimuli/EmptyFrame.bmp,Null,None,None,3,1,1.0,324.40557861328125,324.40557861328125,0.0,328.2336120605469,328.2336120605469,0.0,327.2490539550781,327.2490539550781,0.0,0.0,0.0,0.0,,,,,77.0
Happy,stimuli/20M_HA_O.BMP,stimuli/21M_HA_O.BMP,stimuli/20M_HA_O.BMP,stimuli/EmptyFrame.bmp,stimuli/RedFrame.bmp,2,Happy,Male,3,1,1.0,328.29205322265625,328.29205322265625,0.0,332.2440490722656,332.2440490722656,0.0,331.270263671875,331.270263671875,0.0,1.0,1.0,0.0,'2',1.5399240255355835,1.5399240255355835,0.0,78.0
Happy,stimuli/01F_HA_O.bmp,stimuli/01F_HA_O.bmp,stimuli/02F_HA_O.bmp,stimuli/EmptyFrame.bmp,stimuli/RedFrame.bmp,1,Happy,Female,3,1,1.0,332.2740783691406,332.2740783691406,0.0,336.26025390625,336.26025390625,0.0,335.26739501953125,335.26739501953125,0.0,1.0,1.0,0.0,'1',0.7832754254341125,0.7832754254341125,0.0,79.0
Happy,stimuli/22M_HA_O.BMP,stimuli/23M_HA_O.BMP,stimuli/22M_HA_O.BMP,stimuli/EmptyFrame.bmp,stimuli/RedFrame.bmp,2,Happy,Male,3,1,1.0,336.28948974609375,336.28948974609375,0.0,340.2711486816406,340.2711486816406,0.0,339.28704833984375,339.28704833984375,0.0,1.0,1.0,0.0,'2',1.11906898021698,1.11906898021698,0.0,80.0
Happy,stimuli/24M_HA_O.BMP,stimuli/24M_HA_O.BMP,stimuli/25M_HA_O.BMP,stimuli/EmptyFrame.bmp,stimuli/RedFrame.bmp,1,Happy,Male,3,1,1.0,340.2980041503906,340.2980041503906,0.0,344.2947998046875,344.2947998046875,0.0,343.2986145019531,343.2986145019531,0.0,1.0,1.0,0.0,'1',1.0441453456878662,1.0441453456878662,0.0,81.0
Happy,stimuli/03F_HA_O.bmp,stimuli/05F_HA_O.bmp,stimuli/03F_HA_O.bmp,stimuli/EmptyFrame.bmp,stimuli/RedFrame.bmp,2,Happy,Female,3,1,1.0,344.32562255859375,344.32562255859375,0.0,348.31646728515625,348.31646728515625,0.0,347.3221740722656,347.3221740722656,0.0,1.0,1.0,0.0,'2',1.2573350667953491,1.2573350667953491,0.0,82.0
Happy,stimuli/26M_HA_O.BMP,stimuli/26M_HA_O.BMP,stimuli/27M_HA_O.BMP,stimuli/EmptyFrame.bmp,stimuli/RedFrame.bmp,1,Happy,Male,3,1,1.0,348.34661865234375,348.34661865234375,0.0,352.3379821777344,352.3379821777344,0.0,351.3384094238281,351.3384094238281,0.0,1.0,1.0,0.0,'1',1.2606146335601807,1.2606146335601807,0.0,83.0
Happy,stimuli/06F_HA_O.bmp,stimuli/07F_HA_O.BMP,stimuli/06F_HA_O.bmp,stimuli/EmptyFrame.bmp,stimuli/RedFrame.bmp,2,Happy,Female,3,1,1.0,352.36669921875,352.36669921875,0.0,356.3525085449219,356.3525085449219,0.0,355.36419677734375,355.36419677734375,0.0,1.0,1.0,0.0,'2',0.9742779731750488,0.9742779731750488,0.0,84.0
Happy,stimuli/08F_HA_O.BMP,stimuli/08F_HA_O.BMP,stimuli/09F_HA_O.BMP,stimuli/EmptyFrame.bmp,stimuli/RedFrame.bmp,1,Happy,Female,3,1,1.0,356.3871765136719,356.3871765136719,0.0,360.3756408691406,360.3756408691406,0.0,359.3843994140625,359.3843994140625,0.0,1.0,1.0,0.0,'1',1.0508670806884766,1.0508670806884766,0.0,85.0
Happy,stimuli/28M_HA_O.BMP,stimuli/29M_HA_O.BMP,stimuli/28M_HA_O.BMP,stimuli/EmptyFrame.bmp,stimuli/RedFrame.bmp,2,Happy,Male,3,1,1.0,360.4049987792969,360.4049987792969,0.0,364.3858337402344,364.3858337402344,0.0,363.3981628417969,363.3981628417969,0.0,1.0,1.0,0.0,'2',1.1163005828857422,1.1163005828857422,0.0,86.0
Happy,stimuli/10F_HA_O.BMP,stimuli/10F_HA_O.BMP,stimuli/06F_HA_O.bmp,stimuli/EmptyFrame.bmp,stimuli/RedFrame.bmp,1,Happy,Female,3,1,1.0,364.41351318359375,364.41351318359375,0.0,368.4187316894531,368.4187316894531,0.0,367.4254150390625,367.4254150390625,0.0,1.0,1.0,0.0,'1',0.8105248808860779,0.8105248808860779,0.0,87.0
MatchFaces,stimuli/MatchFaces.bmp,stimuli/EmptyFace.bmp,stimuli/EmptyFace.bmp,stimuli/EmptyFrame.bmp,stimuli/EmptyFrame.bmp,Null,None,None,3,1,1.0,368.66131591796875,368.66131591796875,0.0,372.4228515625,372.4228515625,0.0,371.4344177246094,371.4344177246094,0.0,0.0,0.0,0.0,,,,,88.0
Neutral,stimuli/07F_NE_C.BMP,stimuli/07F_NE_C.BMP,stimuli/14F_NE_C.BMP,stimuli/EmptyFrame.bmp,stimuli/RedFrame.bmp,1,Neutral,Female,3,1,1.0,372.4898681640625,372.4898681640625,0.0,376.4373474121094,376.4373474121094,0.0,375.4505310058594,375.4505310058594,0.0,1.0,1.0,0.0,'1',0.9577851295471191,0.9577851295471191,0.0,89.0
Neutral,stimuli/25M_NE_C.BMP,stimuli/29M_NE_C.BMP,stimuli/25M_NE_C.BMP,stimuli/EmptyFrame.bmp,stimuli/RedFrame.bmp,2,Neutral,Male,3,1,1.0,376.4641418457031,376.4641418457031,0.0,380.4601745605469,380.4601745605469,0.0,379.47662353515625,379.47662353515625,0.0,1.0,1.0,0.0,'2',0.7951682209968567,0.7951682209968567,0.0,90.0
Neutral,stimuli/26M_NE_C.BMP,stimuli/26M_NE_C.BMP,stimuli/28M_NE_C.BMP,stimuli/EmptyFrame.bmp,stimuli/RedFrame.bmp,1,Neutral,Male,3,1,1.0,380.4876403808594,380.4876403808594,0.0,384.47723388671875,384.47723388671875,0.0,383.48797607421875,383.48797607421875,0.0,1.0,1.0,0.0,'1',0.9960997104644775,0.9960997104644775,0.0,91.0
Neutral,stimuli/08F_NE_C.BMP,stimuli/13F_NE_C.BMP,stimuli/08F_NE_C.BMP,stimuli/EmptyFrame.bmp,stimuli/RedFrame.bmp,2,Neutral,Female,3,1,1.0,384.5044250488281,384.5044250488281,0.0,388.4898986816406,388.4898986816406,0.0,387.519775390625,387.519775390625,0.0,1.0,1.0,0.0,'2',0.9008187055587769,0.9008187055587769,0.0,92.0
Neutral,stimuli/09F_NE_C.BMP,stimuli/09F_NE_C.BMP,stimuli/12F_NE_C.BMP,stimuli/EmptyFrame.bmp,stimuli/RedFrame.bmp,1,Neutral,Female,3,1,1.0,388.5176696777344,388.5176696777344,0.0,392.5110778808594,392.5110778808594,0.0,391.519287109375,391.519287109375,0.0,1.0,1.0,0.0,'1',0.7184677720069885,0.7184677720069885,0.0,93.0
Neutral,stimuli/27M_NE_C.BMP,stimuli/26M_NE_C.BMP,stimuli/27M_NE_C.BMP,stimuli/EmptyFrame.bmp,stimuli/RedFrame.bmp,2,Neutral,Male,3,1,1.0,392.53582763671875,392.53582763671875,0.0,396.5377197265625,396.5377197265625,0.0,395.5373840332031,395.5373840332031,0.0,1.0,1.0,0.0,'2',1.1042126417160034,1.1042126417160034,0.0,94.0
Neutral,stimuli/28M_NE_C.BMP,stimuli/28M_NE_C.BMP,stimuli/25M_NE_C.BMP,stimuli/EmptyFrame.bmp,stimuli/RedFrame.bmp,1,Neutral,Male,3,1,1.0,396.560546875,396.560546875,0.0,400.55816650390625,400.55816650390625,0.0,399.5726318359375,399.5726318359375,0.0,1.0,1.0,0.0,'1',0.9924277067184448,0.9924277067184448,0.0,95.0
Neutral,stimuli/10F_NE_C.BMP,stimuli/11F_NE_C.BMP,stimuli/10F_NE_C.BMP,stimuli/EmptyFrame.bmp,stimuli/RedFrame.bmp,2,Neutral,Female,3,1,1.0,400.5875549316406,400.5875549316406,0.0,404.5718994140625,404.5718994140625,0.0,403.5898742675781,403.5898742675781,0.0,1.0,1.0,0.0,'2',0.9108173847198486,0.9108173847198486,0.0,96.0
Neutral,stimuli/29M_NE_C.BMP,stimuli/29M_NE_C.BMP,stimuli/24M_NE_C.BMP,stimuli/EmptyFrame.bmp,stimuli/RedFrame.bmp,1,Neutral,Male,3,1,1.0,404.5987548828125,404.5987548828125,0.0,408.5834045410156,408.5834045410156,0.0,407.6003112792969,407.6003112792969,0.0,1.0,1.0,0.0,'1',0.7889165878295898,0.7889165878295898,0.0,97.0
Neutral,stimuli/11F_NE_C.BMP,stimuli/10F_NE_C.BMP,stimuli/11F_NE_C.BMP,stimuli/EmptyFrame.bmp,stimuli/RedFrame.bmp,2,Neutral,Female,3,1,1.0,408.6080322265625,408.6080322265625,0.0,412.60955810546875,412.60955810546875,0.0,411.6130676269531,411.6130676269531,0.0,1.0,1.0,0.0,'2',0.8810496926307678,0.8810496926307678,0.0,98.0
MatchFaces,stimuli/MatchFaces.bmp,stimuli/EmptyFace.bmp,stimuli/EmptyFace.bmp,stimuli/EmptyFrame.bmp,stimuli/EmptyFrame.bmp,Null,None,None,3,1,1.0,412.82867431640625,412.82867431640625,0.0,416.6129150390625,416.6129150390625,0.0,415.6241455078125,415.6241455078125,0.0,0.0,0.0,0.0,,,,,99.0
Fear,stimuli/23M_FE_O.BMP,stimuli/23M_FE_O.BMP,stimuli/24M_FE_O.BMP,stimuli/EmptyFrame.bmp,stimuli/RedFrame.bmp,1,Fear,Male,3,1,1.0,416.6859130859375,416.6859130859375,0.0,420.6236267089844,420.6236267089844,0.0,419.6374816894531,419.6374816894531,0.0,1.0,1.0,0.0,'1',1.4060604572296143,1.4060604572296143,0.0,100.0
Fear,stimuli/19F_FE_O.BMP,stimuli/18F_FE_O.BMP,stimuli/19F_FE_O.BMP,stimuli/EmptyFrame.bmp,stimuli/RedFrame.bmp,2,Fear,Female,3,1,1.0,420.6537780761719,420.6537780761719,0.0,424.6393737792969,424.6393737792969,0.0,423.6556091308594,423.6556091308594,0.0,1.0,1.0,0.0,'2',0.7719101905822754,0.7719101905822754,0.0,101.0
Fear,stimuli/17F_FE_O.BMP,stimuli/17F_FE_O.BMP,stimuli/16F_FE_O.BMP,stimuli/EmptyFrame.bmp,stimuli/RedFrame.bmp,1,Fear,Female,3,1,1.0,424.6654052734375,424.6654052734375,0.0,428.6542053222656,428.6542053222656,0.0,427.6678466796875,427.6678466796875,0.0,1.0,1.0,0.0,'1',0.9331936240196228,0.9331936240196228,0.0,102.0
Fear,stimuli/15F_FE_O.BMP,stimuli/18F_FE_O.BMP,stimuli/15F_FE_O.BMP,stimuli/EmptyFrame.bmp,stimuli/RedFrame.bmp,2,Fear,Female,3,1,1.0,428.6806640625,428.6806640625,0.0,432.66558837890625,432.66558837890625,0.0,431.6895751953125,431.6895751953125,0.0,1.0,1.0,0.0,'2',1.1197506189346313,1.1197506189346313,0.0,103.0
Fear,stimuli/21M_FE_O.BMP,stimuli/21M_FE_O.BMP,stimuli/22M_FE_O.BMP,stimuli/EmptyFrame.bmp,stimuli/RedFrame.bmp,1,Fear,Male,3,1,1.0,432.6910095214844,432.6910095214844,0.0,436.6781005859375,436.6781005859375,0.0,435.6963806152344,435.6963806152344,0.0,1.0,1.0,0.0,'1',1.451083779335022,1.451083779335022,0.0,104.0
Fear,stimuli/29M_FE_O.BMP,stimuli/30M_FE_O.BMP,stimuli/29M_FE_O.BMP,stimuli/EmptyFrame.bmp,stimuli/RedFrame.bmp,2,Fear,Male,3,1,1.0,436.70623779296875,436.70623779296875,0.0,440.6898193359375,440.6898193359375,0.0,439.7080078125,439.7080078125,0.0,1.0,1.0,0.0,'2',1.1118313074111938,1.1118313074111938,0.0,105.0
Fear,stimuli/31M_FE_O.BMP,stimuli/31M_FE_O.BMP,stimuli/38M_FE_O.BMP,stimuli/EmptyFrame.bmp,stimuli/RedFrame.bmp,1,Fear,Male,3,1,1.0,440.7199401855469,440.7199401855469,0.0,444.71380615234375,444.71380615234375,0.0,443.7215270996094,443.7215270996094,0.0,1.0,1.0,0.0,'1',0.8397639989852905,0.8397639989852905,0.0,106.0
Fear,stimuli/09F_FE_O.BMP,stimuli/07F_FE_O.BMP,stimuli/09F_FE_O.BMP,stimuli/EmptyFrame.bmp,stimuli/RedFrame.bmp,2,Fear,Female,3,1,1.0,444.742431640625,444.742431640625,0.0,448.7283630371094,448.7283630371094,0.0,447.7408752441406,447.7408752441406,0.0,1.0,1.0,0.0,'2',1.6292331218719482,1.6292331218719482,0.0,107.0
Fear,stimuli/11F_FE_O.BMP,stimuli/12F_FE_O.BMP,stimuli/11F_FE_O.BMP,stimuli/EmptyFrame.bmp,stimuli/RedFrame.bmp,2,Fear,Female,3,1,1.0,448.7582092285156,448.7582092285156,0.0,452.7416687011719,452.7416687011719,0.0,451.7613220214844,451.7613220214844,0.0,1.0,1.0,0.0,'2',1.1272344589233398,1.1272344589233398,0.0,108.0
Fear,stimuli/34M_FE_O.BMP,stimuli/34M_FE_O.BMP,stimuli/33M_FE_O.BMP,stimuli/EmptyFrame.bmp,stimuli/RedFrame.bmp,1,Fear,Male,3,1,1.0,452.7721252441406,452.7721252441406,0.0,456.7585754394531,456.7585754394531,0.0,455.7760314941406,455.7760314941406,0.0,1.0,1.0,0.0,'1',1.2986079454421997,1.2986079454421997,0.0,109.0

extraInfo
participant,sub025
session,001
date,2025_Aug_05_0859
expName,HaririTask_Ver1
psychopyVersion,3.0.1
frameRate,None
