TrialType,Top,Left,Right,EmptyFrame,SelectedFrame,Correct,Emotion,Gender,TrialLength,FixationLength,n,GCFaceStartTime_mean,GCFaceStartTime_raw,GCFaceStartTime_std,GCPostFaceFixationEndTime_mean,GCPostFaceFixationEndTime_raw,GCPostFaceFixationEndTime_std,GCPostFaceFixationStartTime_mean,GCPostFaceFixationStartTime_raw,GCPostFaceFixationStartTime_std,key_resp_trial.corr_mean,key_resp_trial.corr_raw,key_resp_trial.corr_std,key_resp_trial.keys_raw,key_resp_trial.rt_mean,key_resp_trial.rt_raw,key_resp_trial.rt_std,order
MatchFaces,stimuli/MatchFaces.bmp,stimuli/EmptyFace.bmp,stimuli/EmptyFace.bmp,stimuli/EmptyFrame.bmp,stimuli/EmptyFrame.bmp,Null,None,None,3,1,1.0,15.205826759338379,15.205826759338379,0.0,19.04952049255371,19.04952049255371,0.0,18.069913864135742,18.069913864135742,0.0,0.0,0.0,0.0,,,,,0.0
Anger,stimuli/01F_AN_O.bmp,stimuli/19F_AN_O.BMP,stimuli/01F_AN_O.bmp,stimuli/EmptyFrame.bmp,stimuli/RedFrame.bmp,2,Anger,Female,3,1,1.0,19.21662712097168,19.21662712097168,0.0,23.068605422973633,23.068605422973633,0.0,22.07209014892578,22.07209014892578,0.0,1.0,1.0,0.0,'2',2.2419397830963135,2.2419397830963135,0.0,1.0
Anger,stimuli/02f_an_o.bmp,stimuli/18F_AN_O.BMP,stimuli/02f_an_o.bmp,stimuli/EmptyFrame.bmp,stimuli/RedFrame.bmp,2,Anger,Female,3,1,1.0,23.098907470703125,23.098907470703125,0.0,27.089200973510742,27.089200973510742,0.0,26.10144805908203,26.10144805908203,0.0,1.0,1.0,0.0,'2',1.1813808679580688,1.1813808679580688,0.0,2.0
Anger,stimuli/20M_AN_O.BMP,stimuli/34M_AN_O.BMP,stimuli/20M_AN_O.BMP,stimuli/EmptyFrame.bmp,stimuli/RedFrame.bmp,2,Anger,Male,3,1,1.0,27.11454963684082,27.11454963684082,0.0,31.102041244506836,31.102041244506836,0.0,30.125703811645508,30.125703811645508,0.0,1.0,1.0,0.0,'2',1.2908570766448975,1.2908570766448975,0.0,3.0
Anger,stimuli/03F_AN_O.bmp,stimuli/03F_AN_O.bmp,stimuli/17F_AN_O.BMP,stimuli/EmptyFrame.bmp,stimuli/RedFrame.bmp,1,Anger,Female,3,1,1.0,31.129730224609375,31.129730224609375,0.0,35.1236686706543,35.1236686706543,0.0,34.133575439453125,34.133575439453125,0.0,1.0,1.0,0.0,'1',1.1165448427200317,1.1165448427200317,0.0,4.0
Anger,stimuli/21M_AN_O.BMP,stimuli/21M_AN_O.BMP,stimuli/33M_AN_O.BMP,stimuli/EmptyFrame.bmp,stimuli/RedFrame.bmp,1,Anger,Male,3,1,1.0,35.14897918701172,35.14897918701172,0.0,39.136077880859375,39.136077880859375,0.0,38.148521423339844,38.148521423339844,0.0,1.0,1.0,0.0,'1',1.1347332000732422,1.1347332000732422,0.0,5.0
Anger,stimuli/22M_AN_O.BMP,stimuli/32M_AN_O.BMP,stimuli/22M_AN_O.BMP,stimuli/EmptyFrame.bmp,stimuli/RedFrame.bmp,2,Anger,Male,3,1,1.0,39.159976959228516,39.159976959228516,0.0,43.15062713623047,43.15062713623047,0.0,42.17421340942383,42.17421340942383,0.0,1.0,1.0,0.0,'2',1.1697237491607666,1.1697237491607666,0.0,6.0
Anger,stimuli/23M_AN_O.BMP,stimuli/23M_AN_O.BMP,stimuli/31M_AN_O.BMP,stimuli/EmptyFrame.bmp,stimuli/RedFrame.bmp,1,Anger,Male,3,1,1.0,43.17485046386719,43.17485046386719,0.0,47.16938400268555,47.16938400268555,0.0,46.18576431274414,46.18576431274414,0.0,1.0,1.0,0.0,'1',1.133080244064331,1.133080244064331,0.0,7.0
Anger,stimuli/05F_AN_O.bmp,stimuli/05F_AN_O.bmp,stimuli/16F_AN_O.BMP,stimuli/EmptyFrame.bmp,stimuli/RedFrame.bmp,1,Anger,Female,3,1,1.0,47.196163177490234,47.196163177490234,0.0,51.18543243408203,51.18543243408203,0.0,50.20655059814453,50.20655059814453,0.0,1.0,1.0,0.0,'1',1.2968595027923584,1.2968595027923584,0.0,8.0
Anger,stimuli/06F_AN_O.bmp,stimuli/15F_AN_O.BMP,stimuli/06F_AN_O.bmp,stimuli/EmptyFrame.bmp,stimuli/RedFrame.bmp,2,Anger,Female,3,1,1.0,51.21450424194336,51.21450424194336,0.0,55.206947326660156,55.206947326660156,0.0,54.21315383911133,54.21315383911133,0.0,1.0,1.0,0.0,'2',1.4019590616226196,1.4019590616226196,0.0,9.0
Anger,stimuli/24M_AN_O.BMP,stimuli/24M_AN_O.BMP,stimuli/30M_AN_O.BMP,stimuli/EmptyFrame.bmp,stimuli/RedFrame.bmp,1,Anger,Male,3,1,1.0,55.23529052734375,55.23529052734375,0.0,59.22105026245117,59.22105026245117,0.0,58.23576354980469,58.23576354980469,0.0,1.0,1.0,0.0,'1',0.9919854998588562,0.9919854998588562,0.0,10.0
MatchShape,stimuli/MatchShapes.bmp,stimuli/EmptyFace.bmp,stimuli/EmptyFace.bmp,stimuli/EmptyFrame.bmp,stimuli/EmptyFrame.bmp,Null,None,None,3,1,1.0,59.24552536010742,59.24552536010742,0.0,63.22490692138672,63.22490692138672,0.0,62.23020553588867,62.23020553588867,0.0,0.0,0.0,0.0,,,,,11.0
Shape,stimuli/horizontal.bmp,stimuli/horizontal.bmp,stimuli/circle.bmp,stimuli/EmptyFrame.bmp,stimuli/RedFrame.bmp,1,Shape,None,3,1,1.0,63.257144927978516,63.257144927978516,0.0,67.24166870117188,67.24166870117188,0.0,66.2474594116211,66.2474594116211,0.0,1.0,1.0,0.0,'1',1.2370827198028564,1.2370827198028564,0.0,12.0
Shape,stimuli/vertical.bmp,stimuli/horizontal.bmp,stimuli/vertical.bmp,stimuli/EmptyFrame.bmp,stimuli/RedFrame.bmp,2,Shape,None,3,1,1.0,67.26144409179688,67.26144409179688,0.0,71.25994110107422,71.25994110107422,0.0,70.26478576660156,70.26478576660156,0.0,1.0,1.0,0.0,'2',0.8657112121582031,0.8657112121582031,0.0,13.0
Shape,stimuli/horizontal.bmp,stimuli/horizontal.bmp,stimuli/vertical.bmp,stimuli/EmptyFrame.bmp,stimuli/RedFrame.bmp,1,Shape,None,3,1,1.0,71.27838134765625,71.27838134765625,0.0,75.27970886230469,75.27970886230469,0.0,74.28622436523438,74.28622436523438,0.0,1.0,1.0,0.0,'1',0.887463390827179,0.887463390827179,0.0,14.0
Shape,stimuli/horizontal.bmp,stimuli/circle.bmp,stimuli/horizontal.bmp,stimuli/EmptyFrame.bmp,stimuli/RedFrame.bmp,2,Shape,None,3,1,1.0,75.30559539794922,75.30559539794922,0.0,79.295654296875,79.295654296875,0.0,78.35628509521484,78.35628509521484,0.0,1.0,1.0,0.0,'2',0.875372588634491,0.875372588634491,0.0,15.0
Shape,stimuli/circle.bmp,stimuli/circle.bmp,stimuli/vertical.bmp,stimuli/EmptyFrame.bmp,stimuli/RedFrame.bmp,1,Shape,None,3,1,1.0,79.31954956054688,79.31954956054688,0.0,83.32172393798828,83.32172393798828,0.0,82.3176498413086,82.3176498413086,0.0,1.0,1.0,0.0,'1',0.9948478937149048,0.9948478937149048,0.0,16.0
Shape,stimuli/circle.bmp,stimuli/circle.bmp,stimuli/horizontal.bmp,stimuli/EmptyFrame.bmp,stimuli/RedFrame.bmp,1,Shape,None,3,1,1.0,83.34848022460938,83.34848022460938,0.0,87.33168029785156,87.33168029785156,0.0,86.34947204589844,86.34947204589844,0.0,1.0,1.0,0.0,'1',1.0212290287017822,1.0212290287017822,0.0,17.0
Shape,stimuli/vertical.bmp,stimuli/circle.bmp,stimuli/vertical.bmp,stimuli/EmptyFrame.bmp,stimuli/RedFrame.bmp,2,Shape,None,3,1,1.0,87.35655975341797,87.35655975341797,0.0,91.35102081298828,91.35102081298828,0.0,90.35829162597656,90.35829162597656,0.0,1.0,1.0,0.0,'2',0.9270336031913757,0.9270336031913757,0.0,18.0
Shape,stimuli/circle.bmp,stimuli/vertical.bmp,stimuli/circle.bmp,stimuli/EmptyFrame.bmp,stimuli/RedFrame.bmp,2,Shape,None,3,1,1.0,91.37648010253906,91.37648010253906,0.0,95.37364196777344,95.37364196777344,0.0,94.38231658935547,94.38231658935547,0.0,1.0,1.0,0.0,'2',0.7689858078956604,0.7689858078956604,0.0,19.0
Shape,stimuli/vertical.bmp,stimuli/horizontal.bmp,stimuli/vertical.bmp,stimuli/EmptyFrame.bmp,stimuli/RedFrame.bmp,2,Shape,None,3,1,1.0,95.39830780029297,95.39830780029297,0.0,99.3847427368164,99.3847427368164,0.0,98.40176391601562,98.40176391601562,0.0,1.0,1.0,0.0,'2',0.8333268165588379,0.8333268165588379,0.0,20.0
Shape,stimuli/vertical.bmp,stimuli/vertical.bmp,stimuli/circle.bmp,stimuli/EmptyFrame.bmp,stimuli/RedFrame.bmp,1,Shape,None,3,1,1.0,99.40760803222656,99.40760803222656,0.0,103.40634155273438,103.40634155273438,0.0,102.42042541503906,102.42042541503906,0.0,1.0,1.0,0.0,'1',0.9071164727210999,0.9071164727210999,0.0,21.0
MatchFaces,stimuli/MatchFaces.bmp,stimuli/EmptyFace.bmp,stimuli/EmptyFace.bmp,stimuli/EmptyFrame.bmp,stimuli/EmptyFrame.bmp,Null,None,None,3,1,1.0,103.56771850585938,103.56771850585938,0.0,107.40862274169922,107.40862274169922,0.0,106.42050170898438,106.42050170898438,0.0,0.0,0.0,0.0,,,,,22.0
Neutral,stimuli/20M_NE_C.BMP,stimuli/21M_NE_C.BMP,stimuli/20M_NE_C.BMP,stimuli/EmptyFrame.bmp,stimuli/RedFrame.bmp,2,Neutral,Male,3,1,1.0,107.46138000488281,107.46138000488281,0.0,111.42133331298828,111.42133331298828,0.0,110.44002532958984,110.44002532958984,0.0,1.0,1.0,0.0,'2',1.493443250656128,1.493443250656128,0.0,23.0
Neutral,stimuli/01F_NE_C.bmp,stimuli/01F_NE_C.bmp,stimuli/02F_NE_C.bmp,stimuli/EmptyFrame.bmp,stimuli/RedFrame.bmp,1,Neutral,Female,3,1,1.0,111.44718933105469,111.44718933105469,0.0,115.43818664550781,115.43818664550781,0.0,114.45064544677734,114.45064544677734,0.0,1.0,1.0,0.0,'1',0.9674100279808044,0.9674100279808044,0.0,24.0
Neutral,stimuli/22M_NE_C.BMP,stimuli/23M_NE_C.BMP,stimuli/22M_NE_C.BMP,stimuli/EmptyFrame.bmp,stimuli/RedFrame.bmp,2,Neutral,Male,3,1,1.0,115.46265411376953,115.46265411376953,0.0,119.45063781738281,119.45063781738281,0.0,118.46765899658203,118.46765899658203,0.0,1.0,1.0,0.0,'2',1.4007235765457153,1.4007235765457153,0.0,25.0
Neutral,stimuli/24M_NE_C.BMP,stimuli/24M_NE_C.BMP,stimuli/25M_NE_C.BMP,stimuli/EmptyFrame.bmp,stimuli/RedFrame.bmp,1,Neutral,Male,3,1,1.0,119.47518157958984,119.47518157958984,0.0,123.47578430175781,123.47578430175781,0.0,122.4936752319336,122.4936752319336,0.0,1.0,1.0,0.0,'1',1.1744303703308105,1.1744303703308105,0.0,26.0
Neutral,stimuli/03F_NE_C.bmp,stimuli/05F_NE_C.bmp,stimuli/03F_NE_C.bmp,stimuli/EmptyFrame.bmp,stimuli/RedFrame.bmp,2,Neutral,Female,3,1,1.0,123.49830627441406,123.49830627441406,0.0,127.49990844726562,127.49990844726562,0.0,126.50984954833984,126.50984954833984,0.0,1.0,1.0,0.0,'2',1.1891562938690186,1.1891562938690186,0.0,27.0
Neutral,stimuli/26M_NE_C.BMP,stimuli/26M_NE_C.BMP,stimuli/27M_NE_C.BMP,stimuli/EmptyFrame.bmp,stimuli/RedFrame.bmp,1,Neutral,Male,3,1,1.0,127.52491760253906,127.52491760253906,0.0,131.52696228027344,131.52696228027344,0.0,130.53317260742188,130.53317260742188,0.0,1.0,1.0,0.0,'1',0.9369977712631226,0.9369977712631226,0.0,28.0
Neutral,stimuli/06F_NE_C.bmp,stimuli/07F_NE_C.BMP,stimuli/06F_NE_C.bmp,stimuli/EmptyFrame.bmp,stimuli/RedFrame.bmp,2,Neutral,Female,3,1,1.0,131.5579833984375,131.5579833984375,0.0,135.54177856445312,135.54177856445312,0.0,134.55833435058594,134.55833435058594,0.0,1.0,1.0,0.0,'2',1.3462907075881958,1.3462907075881958,0.0,29.0
Neutral,stimuli/08F_NE_C.BMP,stimuli/08F_NE_C.BMP,stimuli/09F_NE_C.BMP,stimuli/EmptyFrame.bmp,stimuli/RedFrame.bmp,1,Neutral,Female,3,1,1.0,135.5648956298828,135.5648956298828,0.0,139.55885314941406,139.55885314941406,0.0,138.57620239257812,138.57620239257812,0.0,1.0,1.0,0.0,'1',1.2487634420394897,1.2487634420394897,0.0,30.0
Neutral,stimuli/28M_NE_C.BMP,stimuli/29M_NE_C.BMP,stimuli/28M_NE_C.BMP,stimuli/EmptyFrame.bmp,stimuli/RedFrame.bmp,2,Neutral,Male,3,1,1.0,139.5837860107422,139.5837860107422,0.0,143.57339477539062,143.57339477539062,0.0,142.58335876464844,142.58335876464844,0.0,1.0,1.0,0.0,'2',0.8819395899772644,0.8819395899772644,0.0,31.0
Neutral,stimuli/10F_NE_C.BMP,stimuli/10F_NE_C.BMP,stimuli/06F_NE_C.bmp,stimuli/EmptyFrame.bmp,stimuli/RedFrame.bmp,1,Neutral,Female,3,1,1.0,143.59652709960938,143.59652709960938,0.0,147.58670043945312,147.58670043945312,0.0,146.6048583984375,146.6048583984375,0.0,1.0,1.0,0.0,'1',1.6159286499023438,1.6159286499023438,0.0,32.0
MatchFaces,stimuli/MatchFaces.bmp,stimuli/EmptyFace.bmp,stimuli/EmptyFace.bmp,stimuli/EmptyFrame.bmp,stimuli/EmptyFrame.bmp,Null,None,None,3,1,1.0,147.73968505859375,147.73968505859375,0.0,151.60093688964844,151.60093688964844,0.0,150.60452270507812,150.60452270507812,0.0,0.0,0.0,0.0,,,,,33.0
Fear,stimuli/07F_FE_O.BMP,stimuli/07F_FE_O.BMP,stimuli/14F_FE_O.BMP,stimuli/EmptyFrame.bmp,stimuli/RedFrame.bmp,1,Fear,Female,3,1,1.0,151.673095703125,151.673095703125,0.0,155.61599731445312,155.61599731445312,0.0,154.6358642578125,154.6358642578125,0.0,1.0,1.0,0.0,'1',1.213710904121399,1.213710904121399,0.0,34.0
Fear,stimuli/25M_FE_O.BMP,stimuli/29M_FE_O.BMP,stimuli/25M_FE_O.BMP,stimuli/EmptyFrame.bmp,stimuli/RedFrame.bmp,2,Fear,Male,3,1,1.0,155.6382293701172,155.6382293701172,0.0,159.63255310058594,159.63255310058594,0.0,158.64718627929688,158.64718627929688,0.0,1.0,1.0,0.0,'2',1.3073780536651611,1.3073780536651611,0.0,35.0
Fear,stimuli/26M_FE_O.BMP,stimuli/26M_FE_O.BMP,stimuli/28M_FE_O.BMP,stimuli/EmptyFrame.bmp,stimuli/RedFrame.bmp,1,Fear,Male,3,1,1.0,159.65689086914062,159.65689086914062,0.0,163.6499786376953,163.6499786376953,0.0,162.65667724609375,162.65667724609375,0.0,1.0,1.0,0.0,'1',0.9733201265335083,0.9733201265335083,0.0,36.0
Fear,stimuli/08F_FE_O.BMP,stimuli/13F_FE_O.BMP,stimuli/08F_FE_O.BMP,stimuli/EmptyFrame.bmp,stimuli/RedFrame.bmp,2,Fear,Female,3,1,1.0,163.67274475097656,163.67274475097656,0.0,167.6671600341797,167.6671600341797,0.0,166.68099975585938,166.68099975585938,0.0,1.0,1.0,0.0,'2',1.1069408655166626,1.1069408655166626,0.0,37.0
Fear,stimuli/09F_FE_O.BMP,stimuli/09F_FE_O.BMP,stimuli/12F_FE_O.BMP,stimuli/EmptyFrame.bmp,stimuli/RedFrame.bmp,1,Fear,Female,3,1,1.0,167.690185546875,167.690185546875,0.0,171.68833923339844,171.68833923339844,0.0,170.69937133789062,170.69937133789062,0.0,1.0,1.0,0.0,'1',1.1078981161117554,1.1078981161117554,0.0,38.0
Fear,stimuli/27M_FE_O.BMP,stimuli/26M_FE_O.BMP,stimuli/27M_FE_O.BMP,stimuli/EmptyFrame.bmp,stimuli/RedFrame.bmp,2,Fear,Male,3,1,1.0,171.71372985839844,171.71372985839844,0.0,175.70262145996094,175.70262145996094,0.0,174.7195587158203,174.7195587158203,0.0,1.0,1.0,0.0,'2',1.0231001377105713,1.0231001377105713,0.0,39.0
Fear,stimuli/28M_FE_O.BMP,stimuli/28M_FE_O.BMP,stimuli/25M_FE_O.BMP,stimuli/EmptyFrame.bmp,stimuli/RedFrame.bmp,1,Fear,Male,3,1,1.0,175.7330780029297,175.7330780029297,0.0,179.7161407470703,179.7161407470703,0.0,178.73370361328125,178.73370361328125,0.0,1.0,1.0,0.0,'1',1.2485167980194092,1.2485167980194092,0.0,40.0
Fear,stimuli/10F_FE_O.BMP,stimuli/11F_FE_O.BMP,stimuli/10F_FE_O.BMP,stimuli/EmptyFrame.bmp,stimuli/RedFrame.bmp,2,Fear,Female,3,1,1.0,179.73731994628906,179.73731994628906,0.0,183.74020385742188,183.74020385742188,0.0,182.74838256835938,182.74838256835938,0.0,1.0,1.0,0.0,'2',0.9280281066894531,0.9280281066894531,0.0,41.0
Fear,stimuli/29M_FE_O.BMP,stimuli/29M_FE_O.BMP,stimuli/24M_FE_O.BMP,stimuli/EmptyFrame.bmp,stimuli/RedFrame.bmp,1,Fear,Male,3,1,1.0,183.760986328125,183.760986328125,0.0,187.7498016357422,187.7498016357422,0.0,186.76568603515625,186.76568603515625,0.0,1.0,1.0,0.0,'1',0.9763956069946289,0.9763956069946289,0.0,42.0
Fear,stimuli/11F_FE_O.BMP,stimuli/10F_FE_O.BMP,stimuli/11F_FE_O.BMP,stimuli/EmptyFrame.bmp,stimuli/RedFrame.bmp,2,Fear,Female,3,1,1.0,187.77291870117188,187.77291870117188,0.0,191.76402282714844,191.76402282714844,0.0,190.7821807861328,190.7821807861328,0.0,1.0,1.0,0.0,'2',0.7904412746429443,0.7904412746429443,0.0,43.0
MatchFaces,stimuli/MatchFaces.bmp,stimuli/EmptyFace.bmp,stimuli/EmptyFace.bmp,stimuli/EmptyFrame.bmp,stimuli/EmptyFrame.bmp,Null,None,None,3,1,1.0,191.9523162841797,191.9523162841797,0.0,195.7763671875,195.7763671875,0.0,194.78079223632812,194.78079223632812,0.0,0.0,0.0,0.0,,,,,44.0
Happy,stimuli/19F_HA_O.BMP,stimuli/19F_HA_O.BMP,stimuli/18F_HA_O.BMP,stimuli/EmptyFrame.bmp,stimuli/RedFrame.bmp,1,Happy,Female,3,1,1.0,195.87335205078125,195.87335205078125,0.0,199.80284118652344,199.80284118652344,0.0,198.80181884765625,198.80181884765625,0.0,1.0,1.0,0.0,'1',1.2727272510528564,1.2727272510528564,0.0,45.0
Happy,stimuli/17F_HA_O.BMP,stimuli/16F_HA_O.BMP,stimuli/17F_HA_O.BMP,stimuli/EmptyFrame.bmp,stimuli/RedFrame.bmp,2,Happy,Female,3,1,1.0,199.83602905273438,199.83602905273438,0.0,203.82537841796875,203.82537841796875,0.0,202.84910583496094,202.84910583496094,0.0,1.0,1.0,0.0,'2',1.050840139389038,1.050840139389038,0.0,46.0
Happy,stimuli/43M_HA_O.BMP,stimuli/42M_HA_O.BMP,stimuli/43M_HA_O.BMP,stimuli/EmptyFrame.bmp,stimuli/RedFrame.bmp,2,Happy,Male,3,1,1.0,203.85073852539062,203.85073852539062,0.0,207.843017578125,207.843017578125,0.0,206.8529052734375,206.8529052734375,0.0,1.0,1.0,0.0,'2',0.9744042754173279,0.9744042754173279,0.0,47.0
Happy,stimuli/41M_HA_O.BMP,stimuli/41M_HA_O.BMP,stimuli/40M_HA_O.BMP,stimuli/EmptyFrame.bmp,stimuli/RedFrame.bmp,1,Happy,Male,3,1,1.0,207.86724853515625,207.86724853515625,0.0,211.8590545654297,211.8590545654297,0.0,210.86622619628906,210.86622619628906,0.0,1.0,1.0,0.0,'1',1.4859681129455566,1.4859681129455566,0.0,48.0
Happy,stimuli/15F_HA_O.BMP,stimuli/15F_HA_O.BMP,stimuli/14F_HA_O.BMP,stimuli/EmptyFrame.bmp,stimuli/RedFrame.bmp,1,Happy,Female,3,1,1.0,211.8795928955078,211.8795928955078,0.0,215.8717803955078,215.8717803955078,0.0,214.89083862304688,214.89083862304688,0.0,1.0,1.0,0.0,'1',1.247277855873108,1.247277855873108,0.0,49.0
Happy,stimuli/13F_HA_O.BMP,stimuli/13F_HA_O.BMP,stimuli/12F_HA_O.BMP,stimuli/EmptyFrame.bmp,stimuli/RedFrame.bmp,1,Happy,Female,3,1,1.0,215.89511108398438,215.89511108398438,0.0,219.8846435546875,219.8846435546875,0.0,218.89547729492188,218.89547729492188,0.0,1.0,1.0,0.0,'1',1.1472147703170776,1.1472147703170776,0.0,50.0
Happy,stimuli/39M_HA_O.BMP,stimuli/38M_HA_O.BMP,stimuli/39M_HA_O.BMP,stimuli/EmptyFrame.bmp,stimuli/RedFrame.bmp,2,Happy,Male,3,1,1.0,219.9077606201172,219.9077606201172,0.0,223.9064483642578,223.9064483642578,0.0,222.90704345703125,222.90704345703125,0.0,1.0,1.0,0.0,'2',1.3066493272781372,1.3066493272781372,0.0,51.0
Happy,stimuli/37M_HA_O.BMP,stimuli/37M_HA_O.BMP,stimuli/36M_HA_O.BMP,stimuli/EmptyFrame.bmp,stimuli/RedFrame.bmp,1,Happy,Male,3,1,1.0,223.92677307128906,223.92677307128906,0.0,227.92361450195312,227.92361450195312,0.0,226.93389892578125,226.93389892578125,0.0,1.0,1.0,0.0,'1',1.1385210752487183,1.1385210752487183,0.0,52.0
Happy,stimuli/35M_HA_O.BMP,stimuli/34M_HA_O.BMP,stimuli/35M_HA_O.BMP,stimuli/EmptyFrame.bmp,stimuli/RedFrame.bmp,2,Happy,Male,3,1,1.0,227.94580078125,227.94580078125,0.0,231.9336700439453,231.9336700439453,0.0,230.94825744628906,230.94825744628906,0.0,1.0,1.0,0.0,'2',0.9545876979827881,0.9545876979827881,0.0,53.0
Happy,stimuli/11F_HA_O.BMP,stimuli/10F_HA_O.BMP,stimuli/11F_HA_O.BMP,stimuli/EmptyFrame.bmp,stimuli/RedFrame.bmp,2,Happy,Female,3,1,1.0,231.95700073242188,231.95700073242188,0.0,235.94935607910156,235.94935607910156,0.0,234.96617126464844,234.96617126464844,0.0,1.0,1.0,0.0,'2',0.9643151760101318,0.9643151760101318,0.0,54.0
Match Shape,stimuli/MatchShapes.bmp,stimuli/EmptyFace.bmp,stimuli/EmptyFace.bmp,stimuli/EmptyFrame.bmp,stimuli/EmptyFrame.bmp,Null,None,None,3,1,1.0,235.97900390625,235.97900390625,0.0,239.9652099609375,239.9652099609375,0.0,238.9802703857422,238.9802703857422,0.0,0.0,0.0,0.0,,,,,55.0
Shape,stimuli/circle.bmp,stimuli/vertical.bmp,stimuli/circle.bmp,stimuli/EmptyFrame.bmp,stimuli/RedFrame.bmp,2,Shape,None,3,1,1.0,239.99945068359375,239.99945068359375,0.0,243.97853088378906,243.97853088378906,0.0,242.99359130859375,242.99359130859375,0.0,1.0,1.0,0.0,'2',1.065121054649353,1.065121054649353,0.0,56.0
Shape,stimuli/horizontal.bmp,stimuli/circle.bmp,stimuli/horizontal.bmp,stimuli/EmptyFrame.bmp,stimuli/RedFrame.bmp,2,Shape,None,3,1,1.0,244.00599670410156,244.00599670410156,0.0,247.98451232910156,247.98451232910156,0.0,246.99725341796875,246.99725341796875,0.0,0.0,0.0,0.0,,,,,57.0
Shape,stimuli/vertical.bmp,stimuli/vertical.bmp,stimuli/horizontal.bmp,stimuli/EmptyFrame.bmp,stimuli/RedFrame.bmp,1,Shape,None,3,1,1.0,248.01417541503906,248.01417541503906,0.0,251.99557495117188,251.99557495117188,0.0,251.0186767578125,251.0186767578125,0.0,1.0,1.0,0.0,'1',1.1653059720993042,1.1653059720993042,0.0,58.0
Shape,stimuli/horizontal.bmp,stimuli/circle.bmp,stimuli/horizontal.bmp,stimuli/EmptyFrame.bmp,stimuli/RedFrame.bmp,2,Shape,None,3,1,1.0,252.01889038085938,252.01889038085938,0.0,256.01275634765625,256.01275634765625,0.0,255.02468872070312,255.02468872070312,0.0,1.0,1.0,0.0,'2',0.8574950098991394,0.8574950098991394,0.0,59.0
Shape,stimuli/horizontal.bmp,stimuli/horizontal.bmp,stimuli/vertical.bmp,stimuli/EmptyFrame.bmp,stimuli/RedFrame.bmp,1,Shape,None,3,1,1.0,256.03436279296875,256.03436279296875,0.0,260.0252685546875,260.0252685546875,0.0,259.0389099121094,259.0389099121094,0.0,1.0,1.0,0.0,'1',1.2294589281082153,1.2294589281082153,0.0,60.0
Shape,stimuli/vertical.bmp,stimuli/vertical.bmp,stimuli/circle.bmp,stimuli/EmptyFrame.bmp,stimuli/RedFrame.bmp,1,Shape,None,3,1,1.0,260.04595947265625,260.04595947265625,0.0,264.03741455078125,264.03741455078125,0.0,263.0555114746094,263.0555114746094,0.0,1.0,1.0,0.0,'1',0.794959306716919,0.794959306716919,0.0,61.0
Shape,stimuli/circle.bmp,stimuli/horizontal.bmp,stimuli/circle.bmp,stimuli/EmptyFrame.bmp,stimuli/RedFrame.bmp,2,Shape,None,3,1,1.0,264.0606384277344,264.0606384277344,0.0,268.0545349121094,268.0545349121094,0.0,267.0651550292969,267.0651550292969,0.0,1.0,1.0,0.0,'2',1.1062289476394653,1.1062289476394653,0.0,62.0
Shape,stimuli/circle.bmp,stimuli/vertical.bmp,stimuli/circle.bmp,stimuli/EmptyFrame.bmp,stimuli/RedFrame.bmp,2,Shape,None,3,1,1.0,268.0760498046875,268.0760498046875,0.0,272.067626953125,272.067626953125,0.0,271.08551025390625,271.08551025390625,0.0,1.0,1.0,0.0,'2',0.7905092239379883,0.7905092239379883,0.0,63.0
Shape,stimuli/vertical.bmp,stimuli/vertical.bmp,stimuli/horizontal.bmp,stimuli/EmptyFrame.bmp,stimuli/RedFrame.bmp,1,Shape,None,3,1,1.0,272.0867004394531,272.0867004394531,0.0,276.0851745605469,276.0851745605469,0.0,275.09710693359375,275.09710693359375,0.0,1.0,1.0,0.0,'1',0.9869601130485535,0.9869601130485535,0.0,64.0
Shape,stimuli/horizontal.bmp,stimuli/horizontal.bmp,stimuli/circle.bmp,stimuli/EmptyFrame.bmp,stimuli/RedFrame.bmp,1,Shape,None,3,1,1.0,276.11285400390625,276.11285400390625,0.0,280.0993347167969,280.0993347167969,0.0,279.10723876953125,279.10723876953125,0.0,1.0,1.0,0.0,'1',1.0351600646972656,1.0351600646972656,0.0,65.0
MatchFaces,stimuli/MatchFaces.bmp,stimuli/EmptyFace.bmp,stimuli/EmptyFace.bmp,stimuli/EmptyFrame.bmp,stimuli/EmptyFrame.bmp,Null,None,None,3,1,1.0,280.2811584472656,280.2811584472656,0.0,284.10272216796875,284.10272216796875,0.0,283.1138000488281,283.1138000488281,0.0,0.0,0.0,0.0,,,,,66.0
Anger,stimuli/42M_AN_O.BMP,stimuli/42M_AN_O.BMP,stimuli/43M_AN_O.BMP,stimuli/EmptyFrame.bmp,stimuli/RedFrame.bmp,1,Anger,Male,3,1,1.0,284.1637268066406,284.1637268066406,0.0,288.1233825683594,288.1233825683594,0.0,287.1251220703125,287.1251220703125,0.0,1.0,1.0,0.0,'1',1.010565996170044,1.010565996170044,0.0,67.0
Anger,stimuli/07F_AN_O.BMP,stimuli/07F_AN_O.BMP,stimuli/14F_AN_O.BMP,stimuli/EmptyFrame.bmp,stimuli/RedFrame.bmp,1,Anger,Female,3,1,1.0,288.147705078125,288.147705078125,0.0,292.1430969238281,292.1430969238281,0.0,291.1546630859375,291.1546630859375,0.0,1.0,1.0,0.0,'1',0.980563223361969,0.980563223361969,0.0,68.0
Anger,stimuli/40M_AN_O.BMP,stimuli/41M_AN_O.BMP,stimuli/40M_AN_O.BMP,stimuli/EmptyFrame.bmp,stimuli/RedFrame.bmp,2,Anger,Male,3,1,1.0,292.164306640625,292.164306640625,0.0,296.16864013671875,296.16864013671875,0.0,295.1745300292969,295.1745300292969,0.0,1.0,1.0,0.0,'2',0.8645507097244263,0.8645507097244263,0.0,69.0
Anger,stimuli/38M_AN_O.BMP,stimuli/39M_AN_O.BMP,stimuli/38M_AN_O.BMP,stimuli/EmptyFrame.bmp,stimuli/RedFrame.bmp,2,Anger,Male,3,1,1.0,296.1940002441406,296.1940002441406,0.0,300.1868591308594,300.1868591308594,0.0,299.2059326171875,299.2059326171875,0.0,1.0,1.0,0.0,'2',0.8305562138557434,0.8305562138557434,0.0,70.0
Anger,stimuli/08F_AN_O.BMP,stimuli/08F_AN_O.BMP,stimuli/13F_AN_O.BMP,stimuli/EmptyFrame.bmp,stimuli/RedFrame.bmp,1,Anger,Female,3,1,1.0,300.2099914550781,300.2099914550781,0.0,304.2091064453125,304.2091064453125,0.0,303.2242736816406,303.2242736816406,0.0,1.0,1.0,0.0,'1',0.9077661037445068,0.9077661037445068,0.0,71.0
Anger,stimuli/36M_AN_O.BMP,stimuli/37M_AN_O.BMP,stimuli/36M_AN_O.BMP,stimuli/EmptyFrame.bmp,stimuli/RedFrame.bmp,2,Anger,Male,3,1,1.0,304.2384033203125,304.2384033203125,0.0,308.22833251953125,308.22833251953125,0.0,307.23956298828125,307.23956298828125,0.0,1.0,1.0,0.0,'2',1.099130392074585,1.099130392074585,0.0,72.0
Anger,stimuli/09F_AN_O.BMP,stimuli/12F_AN_O.BMP,stimuli/09F_AN_O.BMP,stimuli/EmptyFrame.bmp,stimuli/RedFrame.bmp,2,Anger,Female,3,1,1.0,308.2578125,308.2578125,0.0,312.24456787109375,312.24456787109375,0.0,311.2706298828125,311.2706298828125,0.0,1.0,1.0,0.0,'2',1.103506088256836,1.103506088256836,0.0,73.0
Anger,stimuli/34M_AN_O.BMP,stimuli/35M_AN_O.BMP,stimuli/34M_AN_O.BMP,stimuli/EmptyFrame.bmp,stimuli/RedFrame.bmp,2,Anger,Male,3,1,1.0,312.2723693847656,312.2723693847656,0.0,316.2553405761719,316.2553405761719,0.0,315.2684020996094,315.2684020996094,0.0,1.0,1.0,0.0,'2',1.7202229499816895,1.7202229499816895,0.0,74.0
Anger,stimuli/10F_AN_O.BMP,stimuli/10F_AN_O.BMP,stimuli/11F_AN_O.BMP,stimuli/EmptyFrame.bmp,stimuli/RedFrame.bmp,1,Anger,Female,3,1,1.0,316.2775573730469,316.2775573730469,0.0,320.2815246582031,320.2815246582031,0.0,319.2945556640625,319.2945556640625,0.0,1.0,1.0,0.0,'1',1.6652427911758423,1.6652427911758423,0.0,75.0
Anger,stimuli/12F_AN_O.BMP,stimuli/12F_AN_O.BMP,stimuli/13F_AN_O.BMP,stimuli/EmptyFrame.bmp,stimuli/RedFrame.bmp,1,Anger,Female,3,1,1.0,320.3100280761719,320.3100280761719,0.0,324.3055419921875,324.3055419921875,0.0,323.30712890625,323.30712890625,0.0,1.0,1.0,0.0,'1',1.0383020639419556,1.0383020639419556,0.0,76.0
MatchFaces,stimuli/MatchFaces.bmp,stimuli/EmptyFace.bmp,stimuli/EmptyFace.bmp,stimuli/EmptyFrame.bmp,stimuli/EmptyFrame.bmp,Null,None,None,3,1,1.0,324.4859924316406,324.4859924316406,0.0,328.31298828125,328.31298828125,0.0,327.3236389160156,327.3236389160156,0.0,0.0,0.0,0.0,,,,,77.0
Happy,stimuli/20M_HA_O.BMP,stimuli/21M_HA_O.BMP,stimuli/20M_HA_O.BMP,stimuli/EmptyFrame.bmp,stimuli/RedFrame.bmp,2,Happy,Male,3,1,1.0,328.37744140625,328.37744140625,0.0,332.336669921875,332.336669921875,0.0,331.33929443359375,331.33929443359375,0.0,1.0,1.0,0.0,'2',1.4320013523101807,1.4320013523101807,0.0,78.0
Happy,stimuli/01F_HA_O.bmp,stimuli/01F_HA_O.bmp,stimuli/02F_HA_O.bmp,stimuli/EmptyFrame.bmp,stimuli/RedFrame.bmp,1,Happy,Female,3,1,1.0,332.3642272949219,332.3642272949219,0.0,336.3517150878906,336.3517150878906,0.0,335.3664855957031,335.3664855957031,0.0,1.0,1.0,0.0,'1',0.8784887790679932,0.8784887790679932,0.0,79.0
Happy,stimuli/22M_HA_O.BMP,stimuli/23M_HA_O.BMP,stimuli/22M_HA_O.BMP,stimuli/EmptyFrame.bmp,stimuli/RedFrame.bmp,2,Happy,Male,3,1,1.0,336.3739013671875,336.3739013671875,0.0,340.377197265625,340.377197265625,0.0,339.3762512207031,339.3762512207031,0.0,1.0,1.0,0.0,'2',1.222225546836853,1.222225546836853,0.0,80.0
Happy,stimuli/24M_HA_O.BMP,stimuli/24M_HA_O.BMP,stimuli/25M_HA_O.BMP,stimuli/EmptyFrame.bmp,stimuli/RedFrame.bmp,1,Happy,Male,3,1,1.0,340.4055480957031,340.4055480957031,0.0,344.3984375,344.3984375,0.0,343.4123840332031,343.4123840332031,0.0,1.0,1.0,0.0,'1',1.2999422550201416,1.2999422550201416,0.0,81.0
Happy,stimuli/03F_HA_O.bmp,stimuli/05F_HA_O.bmp,stimuli/03F_HA_O.bmp,stimuli/EmptyFrame.bmp,stimuli/RedFrame.bmp,2,Happy,Female,3,1,1.0,344.4217224121094,344.4217224121094,0.0,348.42041015625,348.42041015625,0.0,347.4305114746094,347.4305114746094,0.0,1.0,1.0,0.0,'2',0.9907944798469543,0.9907944798469543,0.0,82.0
Happy,stimuli/26M_HA_O.BMP,stimuli/26M_HA_O.BMP,stimuli/27M_HA_O.BMP,stimuli/EmptyFrame.bmp,stimuli/RedFrame.bmp,1,Happy,Male,3,1,1.0,348.446044921875,348.446044921875,0.0,352.4335632324219,352.4335632324219,0.0,351.4502258300781,351.4502258300781,0.0,1.0,1.0,0.0,'1',1.2270920276641846,1.2270920276641846,0.0,83.0
Happy,stimuli/06F_HA_O.bmp,stimuli/07F_HA_O.BMP,stimuli/06F_HA_O.bmp,stimuli/EmptyFrame.bmp,stimuli/RedFrame.bmp,2,Happy,Female,3,1,1.0,352.4571533203125,352.4571533203125,0.0,356.4447937011719,356.4447937011719,0.0,355.4612121582031,355.4612121582031,0.0,1.0,1.0,0.0,'2',1.6538913249969482,1.6538913249969482,0.0,84.0
Happy,stimuli/08F_HA_O.BMP,stimuli/08F_HA_O.BMP,stimuli/09F_HA_O.BMP,stimuli/EmptyFrame.bmp,stimuli/RedFrame.bmp,1,Happy,Female,3,1,1.0,356.4638366699219,356.4638366699219,0.0,360.45648193359375,360.45648193359375,0.0,359.4725036621094,359.4725036621094,0.0,1.0,1.0,0.0,'1',1.1231340169906616,1.1231340169906616,0.0,85.0
Happy,stimuli/28M_HA_O.BMP,stimuli/29M_HA_O.BMP,stimuli/28M_HA_O.BMP,stimuli/EmptyFrame.bmp,stimuli/RedFrame.bmp,2,Happy,Male,3,1,1.0,360.48077392578125,360.48077392578125,0.0,364.471435546875,364.471435546875,0.0,363.48492431640625,363.48492431640625,0.0,0.0,0.0,0.0,'1',1.504388451576233,1.504388451576233,0.0,86.0
Happy,stimuli/10F_HA_O.BMP,stimuli/10F_HA_O.BMP,stimuli/06F_HA_O.bmp,stimuli/EmptyFrame.bmp,stimuli/RedFrame.bmp,1,Happy,Female,3,1,1.0,364.4953308105469,364.4953308105469,0.0,368.4954833984375,368.4954833984375,0.0,367.50506591796875,367.50506591796875,0.0,1.0,1.0,0.0,'1',1.3652938604354858,1.3652938604354858,0.0,87.0
MatchFaces,stimuli/MatchFaces.bmp,stimuli/EmptyFace.bmp,stimuli/EmptyFace.bmp,stimuli/EmptyFrame.bmp,stimuli/EmptyFrame.bmp,Null,None,None,3,1,1.0,368.64947509765625,368.64947509765625,0.0,372.5008850097656,372.5008850097656,0.0,371.51177978515625,371.51177978515625,0.0,0.0,0.0,0.0,,,,,88.0
Neutral,stimuli/07F_NE_C.BMP,stimuli/07F_NE_C.BMP,stimuli/14F_NE_C.BMP,stimuli/EmptyFrame.bmp,stimuli/RedFrame.bmp,1,Neutral,Female,3,1,1.0,372.5640869140625,372.5640869140625,0.0,376.5205383300781,376.5205383300781,0.0,375.5295715332031,375.5295715332031,0.0,1.0,1.0,0.0,'1',1.1785882711410522,1.1785882711410522,0.0,89.0
Neutral,stimuli/25M_NE_C.BMP,stimuli/29M_NE_C.BMP,stimuli/25M_NE_C.BMP,stimuli/EmptyFrame.bmp,stimuli/RedFrame.bmp,2,Neutral,Male,3,1,1.0,376.54827880859375,376.54827880859375,0.0,380.5413513183594,380.5413513183594,0.0,379.5598449707031,379.5598449707031,0.0,1.0,1.0,0.0,'2',1.449135422706604,1.449135422706604,0.0,90.0
Neutral,stimuli/26M_NE_C.BMP,stimuli/26M_NE_C.BMP,stimuli/28M_NE_C.BMP,stimuli/EmptyFrame.bmp,stimuli/RedFrame.bmp,1,Neutral,Male,3,1,1.0,380.5664367675781,380.5664367675781,0.0,384.55914306640625,384.55914306640625,0.0,383.5740051269531,383.5740051269531,0.0,1.0,1.0,0.0,'1',1.1445376873016357,1.1445376873016357,0.0,91.0
Neutral,stimuli/08F_NE_C.BMP,stimuli/13F_NE_C.BMP,stimuli/08F_NE_C.BMP,stimuli/EmptyFrame.bmp,stimuli/RedFrame.bmp,2,Neutral,Female,3,1,1.0,384.5889587402344,384.5889587402344,0.0,388.5810241699219,388.5810241699219,0.0,387.5834655761719,387.5834655761719,0.0,1.0,1.0,0.0,'2',1.0939960479736328,1.0939960479736328,0.0,92.0
Neutral,stimuli/09F_NE_C.BMP,stimuli/09F_NE_C.BMP,stimuli/12F_NE_C.BMP,stimuli/EmptyFrame.bmp,stimuli/RedFrame.bmp,1,Neutral,Female,3,1,1.0,388.609375,388.609375,0.0,392.59710693359375,392.59710693359375,0.0,391.6062927246094,391.6062927246094,0.0,1.0,1.0,0.0,'1',0.9365246295928955,0.9365246295928955,0.0,93.0
Neutral,stimuli/27M_NE_C.BMP,stimuli/26M_NE_C.BMP,stimuli/27M_NE_C.BMP,stimuli/EmptyFrame.bmp,stimuli/RedFrame.bmp,2,Neutral,Male,3,1,1.0,392.620849609375,392.620849609375,0.0,396.6124267578125,396.6124267578125,0.0,395.62786865234375,395.62786865234375,0.0,1.0,1.0,0.0,'2',1.780716061592102,1.780716061592102,0.0,94.0
Neutral,stimuli/28M_NE_C.BMP,stimuli/28M_NE_C.BMP,stimuli/25M_NE_C.BMP,stimuli/EmptyFrame.bmp,stimuli/RedFrame.bmp,1,Neutral,Male,3,1,1.0,396.63494873046875,396.63494873046875,0.0,400.6259765625,400.6259765625,0.0,399.6485900878906,399.6485900878906,0.0,1.0,1.0,0.0,'1',0.9951131939888,0.9951131939888,0.0,95.0
Neutral,stimuli/10F_NE_C.BMP,stimuli/11F_NE_C.BMP,stimuli/10F_NE_C.BMP,stimuli/EmptyFrame.bmp,stimuli/RedFrame.bmp,2,Neutral,Female,3,1,1.0,400.65045166015625,400.65045166015625,0.0,404.6420593261719,404.6420593261719,0.0,403.6488952636719,403.6488952636719,0.0,1.0,1.0,0.0,'2',0.9447824954986572,0.9447824954986572,0.0,96.0
Neutral,stimuli/29M_NE_C.BMP,stimuli/29M_NE_C.BMP,stimuli/24M_NE_C.BMP,stimuli/EmptyFrame.bmp,stimuli/RedFrame.bmp,1,Neutral,Male,3,1,1.0,404.66552734375,404.66552734375,0.0,408.66851806640625,408.66851806640625,0.0,407.67822265625,407.67822265625,0.0,1.0,1.0,0.0,'1',1.12822687625885,1.12822687625885,0.0,97.0
Neutral,stimuli/11F_NE_C.BMP,stimuli/10F_NE_C.BMP,stimuli/11F_NE_C.BMP,stimuli/EmptyFrame.bmp,stimuli/RedFrame.bmp,2,Neutral,Female,3,1,1.0,408.69097900390625,408.69097900390625,0.0,412.68902587890625,412.68902587890625,0.0,411.6972351074219,411.6972351074219,0.0,1.0,1.0,0.0,'2',0.873491108417511,0.873491108417511,0.0,98.0
MatchFaces,stimuli/MatchFaces.bmp,stimuli/EmptyFace.bmp,stimuli/EmptyFace.bmp,stimuli/EmptyFrame.bmp,stimuli/EmptyFrame.bmp,Null,None,None,3,1,1.0,412.8864440917969,412.8864440917969,0.0,416.69720458984375,416.69720458984375,0.0,415.7030334472656,415.7030334472656,0.0,0.0,0.0,0.0,,,,,99.0
Fear,stimuli/23M_FE_O.BMP,stimuli/23M_FE_O.BMP,stimuli/24M_FE_O.BMP,stimuli/EmptyFrame.bmp,stimuli/RedFrame.bmp,1,Fear,Male,3,1,1.0,416.7969970703125,416.7969970703125,0.0,420.7205810546875,420.7205810546875,0.0,419.7236022949219,419.7236022949219,0.0,1.0,1.0,0.0,'1',1.1864591836929321,1.1864591836929321,0.0,100.0
Fear,stimuli/19F_FE_O.BMP,stimuli/18F_FE_O.BMP,stimuli/19F_FE_O.BMP,stimuli/EmptyFrame.bmp,stimuli/RedFrame.bmp,2,Fear,Female,3,1,1.0,420.745361328125,420.745361328125,0.0,424.7485656738281,424.7485656738281,0.0,423.749267578125,423.749267578125,0.0,1.0,1.0,0.0,'2',2.036924362182617,2.036924362182617,0.0,101.0
Fear,stimuli/17F_FE_O.BMP,stimuli/17F_FE_O.BMP,stimuli/16F_FE_O.BMP,stimuli/EmptyFrame.bmp,stimuli/RedFrame.bmp,1,Fear,Female,3,1,1.0,424.77862548828125,424.77862548828125,0.0,428.77874755859375,428.77874755859375,0.0,427.7823791503906,427.7823791503906,0.0,1.0,1.0,0.0,'1',0.8154827952384949,0.8154827952384949,0.0,102.0
Fear,stimuli/15F_FE_O.BMP,stimuli/18F_FE_O.BMP,stimuli/15F_FE_O.BMP,stimuli/EmptyFrame.bmp,stimuli/RedFrame.bmp,2,Fear,Female,3,1,1.0,428.8044128417969,428.8044128417969,0.0,432.80181884765625,432.80181884765625,0.0,431.8162841796875,431.8162841796875,0.0,1.0,1.0,0.0,'2',0.965038001537323,0.965038001537323,0.0,103.0
Fear,stimuli/21M_FE_O.BMP,stimuli/21M_FE_O.BMP,stimuli/22M_FE_O.BMP,stimuli/EmptyFrame.bmp,stimuli/RedFrame.bmp,1,Fear,Male,3,1,1.0,432.8287353515625,432.8287353515625,0.0,436.822265625,436.822265625,0.0,435.82635498046875,435.82635498046875,0.0,1.0,1.0,0.0,'1',1.0627963542938232,1.0627963542938232,0.0,104.0
Fear,stimuli/29M_FE_O.BMP,stimuli/30M_FE_O.BMP,stimuli/29M_FE_O.BMP,stimuli/EmptyFrame.bmp,stimuli/RedFrame.bmp,2,Fear,Male,3,1,1.0,436.8468017578125,436.8468017578125,0.0,440.8349914550781,440.8349914550781,0.0,439.85015869140625,439.85015869140625,0.0,1.0,1.0,0.0,'2',0.9644672274589539,0.9644672274589539,0.0,105.0
Fear,stimuli/31M_FE_O.BMP,stimuli/31M_FE_O.BMP,stimuli/38M_FE_O.BMP,stimuli/EmptyFrame.bmp,stimuli/RedFrame.bmp,1,Fear,Male,3,1,1.0,440.8607482910156,440.8607482910156,0.0,444.84686279296875,444.84686279296875,0.0,443.86517333984375,443.86517333984375,0.0,1.0,1.0,0.0,'1',1.053086757659912,1.053086757659912,0.0,106.0
Fear,stimuli/09F_FE_O.BMP,stimuli/07F_FE_O.BMP,stimuli/09F_FE_O.BMP,stimuli/EmptyFrame.bmp,stimuli/RedFrame.bmp,2,Fear,Female,3,1,1.0,444.87396240234375,444.87396240234375,0.0,448.86358642578125,448.86358642578125,0.0,447.8765563964844,447.8765563964844,0.0,1.0,1.0,0.0,'2',0.8934003710746765,0.8934003710746765,0.0,107.0
Fear,stimuli/11F_FE_O.BMP,stimuli/12F_FE_O.BMP,stimuli/11F_FE_O.BMP,stimuli/EmptyFrame.bmp,stimuli/RedFrame.bmp,2,Fear,Female,3,1,1.0,448.8861999511719,448.8861999511719,0.0,452.8816833496094,452.8816833496094,0.0,451.8974304199219,451.8974304199219,0.0,1.0,1.0,0.0,'2',0.8931990265846252,0.8931990265846252,0.0,108.0
Fear,stimuli/34M_FE_O.BMP,stimuli/34M_FE_O.BMP,stimuli/33M_FE_O.BMP,stimuli/EmptyFrame.bmp,stimuli/RedFrame.bmp,1,Fear,Male,3,1,1.0,452.9047546386719,452.9047546386719,0.0,456.8925476074219,456.8925476074219,0.0,455.9075927734375,455.9075927734375,0.0,1.0,1.0,0.0,'1',2.2750563621520996,2.2750563621520996,0.0,109.0

extraInfo
participant,sub006
session,002
date,2025_May_23_0903
expName,HaririTask_Ver1
psychopyVersion,3.0.1
frameRate,None
