TrialType,Top,Left,Right,EmptyFrame,SelectedFrame,Correct,Emotion,Gender,TrialLength,FixationLength,n,GCFaceStartTime_mean,GCFaceStartTime_raw,GCFaceStartTime_std,GCPostFaceFixationEndTime_mean,GCPostFaceFixationEndTime_raw,GCPostFaceFixationEndTime_std,GCPostFaceFixationStartTime_mean,GCPostFaceFixationStartTime_raw,GCPostFaceFixationStartTime_std,key_resp_trial.corr_mean,key_resp_trial.corr_raw,key_resp_trial.corr_std,key_resp_trial.keys_raw,key_resp_trial.rt_mean,key_resp_trial.rt_raw,key_resp_trial.rt_std,order
MatchFaces,stimuli/MatchFaces.bmp,stimuli/EmptyFace.bmp,stimuli/EmptyFace.bmp,stimuli/EmptyFrame.bmp,stimuli/EmptyFrame.bmp,Null,None,None,3,1,1.0,15.283624649047852,15.283624649047852,0.0,19.104761123657227,19.104761123657227,0.0,18.098487854003906,18.098487854003906,0.0,0.0,0.0,0.0,,,,,0.0
Anger,stimuli/01F_AN_O.bmp,stimuli/19F_AN_O.BMP,stimuli/01F_AN_O.bmp,stimuli/EmptyFrame.bmp,stimuli/RedFrame.bmp,2,Anger,Female,3,1,1.0,19.263845443725586,19.263845443725586,0.0,23.125165939331055,23.125165939331055,0.0,22.1336669921875,22.1336669921875,0.0,1.0,1.0,0.0,'2',0.7995762228965759,0.7995762228965759,0.0,1.0
Anger,stimuli/02f_an_o.bmp,stimuli/18F_AN_O.BMP,stimuli/02f_an_o.bmp,stimuli/EmptyFrame.bmp,stimuli/RedFrame.bmp,2,Anger,Female,3,1,1.0,23.151575088500977,23.151575088500977,0.0,27.137666702270508,27.137666702270508,0.0,26.155195236206055,26.155195236206055,0.0,1.0,1.0,0.0,'2',0.7982019782066345,0.7982019782066345,0.0,2.0
Anger,stimuli/20M_AN_O.BMP,stimuli/34M_AN_O.BMP,stimuli/20M_AN_O.BMP,stimuli/EmptyFrame.bmp,stimuli/RedFrame.bmp,2,Anger,Male,3,1,1.0,27.17258071899414,27.17258071899414,0.0,31.151147842407227,31.151147842407227,0.0,30.165550231933594,30.165550231933594,0.0,1.0,1.0,0.0,'2',0.730787992477417,0.730787992477417,0.0,3.0
Anger,stimuli/03F_AN_O.bmp,stimuli/03F_AN_O.bmp,stimuli/17F_AN_O.BMP,stimuli/EmptyFrame.bmp,stimuli/RedFrame.bmp,1,Anger,Female,3,1,1.0,31.18301010131836,31.18301010131836,0.0,35.165138244628906,35.165138244628906,0.0,34.18568420410156,34.18568420410156,0.0,1.0,1.0,0.0,'1',0.6546022891998291,0.6546022891998291,0.0,4.0
Anger,stimuli/21M_AN_O.BMP,stimuli/21M_AN_O.BMP,stimuli/33M_AN_O.BMP,stimuli/EmptyFrame.bmp,stimuli/RedFrame.bmp,1,Anger,Male,3,1,1.0,35.198211669921875,35.198211669921875,0.0,39.17948913574219,39.17948913574219,0.0,38.21855163574219,38.21855163574219,0.0,1.0,1.0,0.0,'1',0.5935729146003723,0.5935729146003723,0.0,5.0
Anger,stimuli/22M_AN_O.BMP,stimuli/32M_AN_O.BMP,stimuli/22M_AN_O.BMP,stimuli/EmptyFrame.bmp,stimuli/RedFrame.bmp,2,Anger,Male,3,1,1.0,39.20960235595703,39.20960235595703,0.0,43.19291305541992,43.19291305541992,0.0,42.215187072753906,42.215187072753906,0.0,1.0,1.0,0.0,'2',0.6673023700714111,0.6673023700714111,0.0,6.0
Anger,stimuli/23M_AN_O.BMP,stimuli/23M_AN_O.BMP,stimuli/31M_AN_O.BMP,stimuli/EmptyFrame.bmp,stimuli/RedFrame.bmp,1,Anger,Male,3,1,1.0,43.22102355957031,43.22102355957031,0.0,47.21599197387695,47.21599197387695,0.0,46.23203659057617,46.23203659057617,0.0,1.0,1.0,0.0,'1',0.727663516998291,0.727663516998291,0.0,7.0
Anger,stimuli/05F_AN_O.bmp,stimuli/05F_AN_O.bmp,stimuli/16F_AN_O.BMP,stimuli/EmptyFrame.bmp,stimuli/RedFrame.bmp,1,Anger,Female,3,1,1.0,47.249298095703125,47.249298095703125,0.0,51.235530853271484,51.235530853271484,0.0,50.25478744506836,50.25478744506836,0.0,1.0,1.0,0.0,'1',0.821043074131012,0.821043074131012,0.0,8.0
Anger,stimuli/06F_AN_O.bmp,stimuli/15F_AN_O.BMP,stimuli/06F_AN_O.bmp,stimuli/EmptyFrame.bmp,stimuli/RedFrame.bmp,2,Anger,Female,3,1,1.0,51.26664733886719,51.26664733886719,0.0,55.24898147583008,55.24898147583008,0.0,54.261478424072266,54.261478424072266,0.0,1.0,1.0,0.0,'2',0.5520972013473511,0.5520972013473511,0.0,9.0
Anger,stimuli/24M_AN_O.BMP,stimuli/24M_AN_O.BMP,stimuli/30M_AN_O.BMP,stimuli/EmptyFrame.bmp,stimuli/RedFrame.bmp,1,Anger,Male,3,1,1.0,55.27993392944336,55.27993392944336,0.0,59.26990509033203,59.26990509033203,0.0,58.28362274169922,58.28362274169922,0.0,1.0,1.0,0.0,'1',0.8002961277961731,0.8002961277961731,0.0,10.0
MatchShape,stimuli/MatchShapes.bmp,stimuli/EmptyFace.bmp,stimuli/EmptyFace.bmp,stimuli/EmptyFrame.bmp,stimuli/EmptyFrame.bmp,Null,None,None,3,1,1.0,59.30240249633789,59.30240249633789,0.0,63.281742095947266,63.281742095947266,0.0,62.29482650756836,62.29482650756836,0.0,0.0,0.0,0.0,,,,,11.0
Shape,stimuli/horizontal.bmp,stimuli/horizontal.bmp,stimuli/circle.bmp,stimuli/EmptyFrame.bmp,stimuli/RedFrame.bmp,1,Shape,None,3,1,1.0,63.31705093383789,63.31705093383789,0.0,67.30601501464844,67.30601501464844,0.0,66.31114959716797,66.31114959716797,0.0,1.0,1.0,0.0,'1',0.5459737181663513,0.5459737181663513,0.0,12.0
Shape,stimuli/vertical.bmp,stimuli/horizontal.bmp,stimuli/vertical.bmp,stimuli/EmptyFrame.bmp,stimuli/RedFrame.bmp,2,Shape,None,3,1,1.0,67.33635711669922,67.33635711669922,0.0,71.3275375366211,71.3275375366211,0.0,70.33364868164062,70.33364868164062,0.0,1.0,1.0,0.0,'2',0.6644250154495239,0.6644250154495239,0.0,13.0
Shape,stimuli/horizontal.bmp,stimuli/horizontal.bmp,stimuli/vertical.bmp,stimuli/EmptyFrame.bmp,stimuli/RedFrame.bmp,1,Shape,None,3,1,1.0,71.35150146484375,71.35150146484375,0.0,75.33909606933594,75.33909606933594,0.0,74.35140991210938,74.35140991210938,0.0,1.0,1.0,0.0,'1',0.5158830285072327,0.5158830285072327,0.0,14.0
Shape,stimuli/horizontal.bmp,stimuli/circle.bmp,stimuli/horizontal.bmp,stimuli/EmptyFrame.bmp,stimuli/RedFrame.bmp,2,Shape,None,3,1,1.0,75.36260986328125,75.36260986328125,0.0,79.35980987548828,79.35980987548828,0.0,78.36876678466797,78.36876678466797,0.0,1.0,1.0,0.0,'2',0.5240142941474915,0.5240142941474915,0.0,15.0
Shape,stimuli/circle.bmp,stimuli/circle.bmp,stimuli/vertical.bmp,stimuli/EmptyFrame.bmp,stimuli/RedFrame.bmp,1,Shape,None,3,1,1.0,79.3819351196289,79.3819351196289,0.0,83.37691497802734,83.37691497802734,0.0,82.3901596069336,82.3901596069336,0.0,1.0,1.0,0.0,'1',0.5065693259239197,0.5065693259239197,0.0,16.0
Shape,stimuli/circle.bmp,stimuli/circle.bmp,stimuli/horizontal.bmp,stimuli/EmptyFrame.bmp,stimuli/RedFrame.bmp,1,Shape,None,3,1,1.0,83.40873718261719,83.40873718261719,0.0,87.39828491210938,87.39828491210938,0.0,86.40357208251953,86.40357208251953,0.0,1.0,1.0,0.0,'1',0.5111178159713745,0.5111178159713745,0.0,17.0
Shape,stimuli/vertical.bmp,stimuli/circle.bmp,stimuli/vertical.bmp,stimuli/EmptyFrame.bmp,stimuli/RedFrame.bmp,2,Shape,None,3,1,1.0,87.42167663574219,87.42167663574219,0.0,91.41075897216797,91.41075897216797,0.0,90.43939971923828,90.43939971923828,0.0,1.0,1.0,0.0,'2',0.4629710912704468,0.4629710912704468,0.0,18.0
Shape,stimuli/circle.bmp,stimuli/vertical.bmp,stimuli/circle.bmp,stimuli/EmptyFrame.bmp,stimuli/RedFrame.bmp,2,Shape,None,3,1,1.0,91.4350357055664,91.4350357055664,0.0,95.42218780517578,95.42218780517578,0.0,94.4444580078125,94.4444580078125,0.0,1.0,1.0,0.0,'2',0.6187461018562317,0.6187461018562317,0.0,19.0
Shape,stimuli/vertical.bmp,stimuli/horizontal.bmp,stimuli/vertical.bmp,stimuli/EmptyFrame.bmp,stimuli/RedFrame.bmp,2,Shape,None,3,1,1.0,95.44375610351562,95.44375610351562,0.0,99.44544219970703,99.44544219970703,0.0,98.45838928222656,98.45838928222656,0.0,1.0,1.0,0.0,'2',0.5737985968589783,0.5737985968589783,0.0,20.0
Shape,stimuli/vertical.bmp,stimuli/vertical.bmp,stimuli/circle.bmp,stimuli/EmptyFrame.bmp,stimuli/RedFrame.bmp,1,Shape,None,3,1,1.0,99.4679946899414,99.4679946899414,0.0,103.46820068359375,103.46820068359375,0.0,102.49030303955078,102.49030303955078,0.0,1.0,1.0,0.0,'1',0.4835495948791504,0.4835495948791504,0.0,21.0
MatchFaces,stimuli/MatchFaces.bmp,stimuli/EmptyFace.bmp,stimuli/EmptyFace.bmp,stimuli/EmptyFrame.bmp,stimuli/EmptyFrame.bmp,Null,None,None,3,1,1.0,103.59998321533203,103.59998321533203,0.0,107.47708892822266,107.47708892822266,0.0,106.4804458618164,106.4804458618164,0.0,0.0,0.0,0.0,,,,,22.0
Neutral,stimuli/20M_NE_C.BMP,stimuli/21M_NE_C.BMP,stimuli/20M_NE_C.BMP,stimuli/EmptyFrame.bmp,stimuli/RedFrame.bmp,2,Neutral,Male,3,1,1.0,107.53591918945312,107.53591918945312,0.0,111.50035095214844,111.50035095214844,0.0,110.5000228881836,110.5000228881836,0.0,1.0,1.0,0.0,'2',0.7820153832435608,0.7820153832435608,0.0,23.0
Neutral,stimuli/01F_NE_C.bmp,stimuli/01F_NE_C.bmp,stimuli/02F_NE_C.bmp,stimuli/EmptyFrame.bmp,stimuli/RedFrame.bmp,1,Neutral,Female,3,1,1.0,111.5306167602539,111.5306167602539,0.0,115.51897430419922,115.51897430419922,0.0,114.53116607666016,114.53116607666016,0.0,1.0,1.0,0.0,'1',0.5681431293487549,0.5681431293487549,0.0,24.0
Neutral,stimuli/22M_NE_C.BMP,stimuli/23M_NE_C.BMP,stimuli/22M_NE_C.BMP,stimuli/EmptyFrame.bmp,stimuli/RedFrame.bmp,2,Neutral,Male,3,1,1.0,115.54456329345703,115.54456329345703,0.0,119.53163146972656,119.53163146972656,0.0,118.55219268798828,118.55219268798828,0.0,1.0,1.0,0.0,'2',0.7063164710998535,0.7063164710998535,0.0,25.0
Neutral,stimuli/24M_NE_C.BMP,stimuli/24M_NE_C.BMP,stimuli/25M_NE_C.BMP,stimuli/EmptyFrame.bmp,stimuli/RedFrame.bmp,1,Neutral,Male,3,1,1.0,119.56039428710938,119.56039428710938,0.0,123.54690551757812,123.54690551757812,0.0,122.56008911132812,122.56008911132812,0.0,1.0,1.0,0.0,'1',0.9748935699462891,0.9748935699462891,0.0,26.0
Neutral,stimuli/03F_NE_C.bmp,stimuli/05F_NE_C.bmp,stimuli/03F_NE_C.bmp,stimuli/EmptyFrame.bmp,stimuli/RedFrame.bmp,2,Neutral,Female,3,1,1.0,123.5770492553711,123.5770492553711,0.0,127.5644760131836,127.5644760131836,0.0,126.58914947509766,126.58914947509766,0.0,1.0,1.0,0.0,'2',0.8253427147865295,0.8253427147865295,0.0,27.0
Neutral,stimuli/26M_NE_C.BMP,stimuli/26M_NE_C.BMP,stimuli/27M_NE_C.BMP,stimuli/EmptyFrame.bmp,stimuli/RedFrame.bmp,1,Neutral,Male,3,1,1.0,127.59062194824219,127.59062194824219,0.0,131.58248901367188,131.58248901367188,0.0,130.5884552001953,130.5884552001953,0.0,1.0,1.0,0.0,'1',0.7853001952171326,0.7853001952171326,0.0,28.0
Neutral,stimuli/06F_NE_C.bmp,stimuli/07F_NE_C.BMP,stimuli/06F_NE_C.bmp,stimuli/EmptyFrame.bmp,stimuli/RedFrame.bmp,2,Neutral,Female,3,1,1.0,131.61021423339844,131.61021423339844,0.0,135.61065673828125,135.61065673828125,0.0,134.6172637939453,134.6172637939453,0.0,1.0,1.0,0.0,'2',0.6518051028251648,0.6518051028251648,0.0,29.0
Neutral,stimuli/08F_NE_C.BMP,stimuli/08F_NE_C.BMP,stimuli/09F_NE_C.BMP,stimuli/EmptyFrame.bmp,stimuli/RedFrame.bmp,1,Neutral,Female,3,1,1.0,135.64292907714844,135.64292907714844,0.0,139.62210083007812,139.62210083007812,0.0,138.64830017089844,138.64830017089844,0.0,1.0,1.0,0.0,'1',0.6323187947273254,0.6323187947273254,0.0,30.0
Neutral,stimuli/28M_NE_C.BMP,stimuli/29M_NE_C.BMP,stimuli/28M_NE_C.BMP,stimuli/EmptyFrame.bmp,stimuli/RedFrame.bmp,2,Neutral,Male,3,1,1.0,139.64892578125,139.64892578125,0.0,143.6419677734375,143.6419677734375,0.0,142.65359497070312,142.65359497070312,0.0,1.0,1.0,0.0,'2',0.6175230741500854,0.6175230741500854,0.0,31.0
Neutral,stimuli/10F_NE_C.BMP,stimuli/10F_NE_C.BMP,stimuli/06F_NE_C.bmp,stimuli/EmptyFrame.bmp,stimuli/RedFrame.bmp,1,Neutral,Female,3,1,1.0,143.663818359375,143.663818359375,0.0,147.65499877929688,147.65499877929688,0.0,146.67471313476562,146.67471313476562,0.0,1.0,1.0,0.0,'1',0.7840642929077148,0.7840642929077148,0.0,32.0
MatchFaces,stimuli/MatchFaces.bmp,stimuli/EmptyFace.bmp,stimuli/EmptyFace.bmp,stimuli/EmptyFrame.bmp,stimuli/EmptyFrame.bmp,Null,None,None,3,1,1.0,147.79766845703125,147.79766845703125,0.0,151.66213989257812,151.66213989257812,0.0,150.671142578125,150.671142578125,0.0,0.0,0.0,0.0,,,,,33.0
Fear,stimuli/07F_FE_O.BMP,stimuli/07F_FE_O.BMP,stimuli/14F_FE_O.BMP,stimuli/EmptyFrame.bmp,stimuli/RedFrame.bmp,1,Fear,Female,3,1,1.0,151.71630859375,151.71630859375,0.0,155.67630004882812,155.67630004882812,0.0,154.70228576660156,154.70228576660156,0.0,1.0,1.0,0.0,'1',0.6090691089630127,0.6090691089630127,0.0,34.0
Fear,stimuli/25M_FE_O.BMP,stimuli/29M_FE_O.BMP,stimuli/25M_FE_O.BMP,stimuli/EmptyFrame.bmp,stimuli/RedFrame.bmp,2,Fear,Male,3,1,1.0,155.7003631591797,155.7003631591797,0.0,159.70448303222656,159.70448303222656,0.0,158.70790100097656,158.70790100097656,0.0,1.0,1.0,0.0,'2',0.7951971888542175,0.7951971888542175,0.0,35.0
Fear,stimuli/26M_FE_O.BMP,stimuli/26M_FE_O.BMP,stimuli/28M_FE_O.BMP,stimuli/EmptyFrame.bmp,stimuli/RedFrame.bmp,1,Fear,Male,3,1,1.0,159.7366180419922,159.7366180419922,0.0,163.73069763183594,163.73069763183594,0.0,162.73760986328125,162.73760986328125,0.0,1.0,1.0,0.0,'1',0.6272127032279968,0.6272127032279968,0.0,36.0
Fear,stimuli/08F_FE_O.BMP,stimuli/13F_FE_O.BMP,stimuli/08F_FE_O.BMP,stimuli/EmptyFrame.bmp,stimuli/RedFrame.bmp,2,Fear,Female,3,1,1.0,163.75515747070312,163.75515747070312,0.0,167.74647521972656,167.74647521972656,0.0,166.76715087890625,166.76715087890625,0.0,1.0,1.0,0.0,'2',0.6725935935974121,0.6725935935974121,0.0,37.0
Fear,stimuli/09F_FE_O.BMP,stimuli/09F_FE_O.BMP,stimuli/12F_FE_O.BMP,stimuli/EmptyFrame.bmp,stimuli/RedFrame.bmp,1,Fear,Female,3,1,1.0,167.78176879882812,167.78176879882812,0.0,171.75706481933594,171.75706481933594,0.0,170.78346252441406,170.78346252441406,0.0,1.0,1.0,0.0,'1',0.5732235908508301,0.5732235908508301,0.0,38.0
Fear,stimuli/27M_FE_O.BMP,stimuli/26M_FE_O.BMP,stimuli/27M_FE_O.BMP,stimuli/EmptyFrame.bmp,stimuli/RedFrame.bmp,2,Fear,Male,3,1,1.0,171.78477478027344,171.78477478027344,0.0,175.777099609375,175.777099609375,0.0,174.7937469482422,174.7937469482422,0.0,1.0,1.0,0.0,'2',0.6561151146888733,0.6561151146888733,0.0,39.0
Fear,stimuli/28M_FE_O.BMP,stimuli/28M_FE_O.BMP,stimuli/25M_FE_O.BMP,stimuli/EmptyFrame.bmp,stimuli/RedFrame.bmp,1,Fear,Male,3,1,1.0,175.80284118652344,175.80284118652344,0.0,179.7946319580078,179.7946319580078,0.0,178.80914306640625,178.80914306640625,0.0,1.0,1.0,0.0,'1',0.6810680031776428,0.6810680031776428,0.0,40.0
Fear,stimuli/10F_FE_O.BMP,stimuli/11F_FE_O.BMP,stimuli/10F_FE_O.BMP,stimuli/EmptyFrame.bmp,stimuli/RedFrame.bmp,2,Fear,Female,3,1,1.0,179.82461547851562,179.82461547851562,0.0,183.80801391601562,183.80801391601562,0.0,182.81954956054688,182.81954956054688,0.0,1.0,1.0,0.0,'2',0.6452667117118835,0.6452667117118835,0.0,41.0
Fear,stimuli/29M_FE_O.BMP,stimuli/29M_FE_O.BMP,stimuli/24M_FE_O.BMP,stimuli/EmptyFrame.bmp,stimuli/RedFrame.bmp,1,Fear,Male,3,1,1.0,183.83731079101562,183.83731079101562,0.0,187.83213806152344,187.83213806152344,0.0,186.8339080810547,186.8339080810547,0.0,1.0,1.0,0.0,'1',0.7291982769966125,0.7291982769966125,0.0,42.0
Fear,stimuli/11F_FE_O.BMP,stimuli/10F_FE_O.BMP,stimuli/11F_FE_O.BMP,stimuli/EmptyFrame.bmp,stimuli/RedFrame.bmp,2,Fear,Female,3,1,1.0,187.85462951660156,187.85462951660156,0.0,191.8489227294922,191.8489227294922,0.0,190.86216735839844,190.86216735839844,0.0,1.0,1.0,0.0,'2',0.6624712944030762,0.6624712944030762,0.0,43.0
MatchFaces,stimuli/MatchFaces.bmp,stimuli/EmptyFace.bmp,stimuli/EmptyFace.bmp,stimuli/EmptyFrame.bmp,stimuli/EmptyFrame.bmp,Null,None,None,3,1,1.0,191.98191833496094,191.98191833496094,0.0,195.8502197265625,195.8502197265625,0.0,194.86639404296875,194.86639404296875,0.0,0.0,0.0,0.0,,,,,44.0
Happy,stimuli/19F_HA_O.BMP,stimuli/19F_HA_O.BMP,stimuli/18F_HA_O.BMP,stimuli/EmptyFrame.bmp,stimuli/RedFrame.bmp,1,Happy,Female,3,1,1.0,195.8981170654297,195.8981170654297,0.0,199.86312866210938,199.86312866210938,0.0,198.8773956298828,198.8773956298828,0.0,1.0,1.0,0.0,'1',0.5635619759559631,0.5635619759559631,0.0,45.0
Happy,stimuli/17F_HA_O.BMP,stimuli/16F_HA_O.BMP,stimuli/17F_HA_O.BMP,stimuli/EmptyFrame.bmp,stimuli/RedFrame.bmp,2,Happy,Female,3,1,1.0,199.8953094482422,199.8953094482422,0.0,203.88259887695312,203.88259887695312,0.0,202.89773559570312,202.89773559570312,0.0,1.0,1.0,0.0,'2',0.7909986972808838,0.7909986972808838,0.0,46.0
Happy,stimuli/43M_HA_O.BMP,stimuli/42M_HA_O.BMP,stimuli/43M_HA_O.BMP,stimuli/EmptyFrame.bmp,stimuli/RedFrame.bmp,2,Happy,Male,3,1,1.0,203.9153594970703,203.9153594970703,0.0,207.90821838378906,207.90821838378906,0.0,206.9166259765625,206.9166259765625,0.0,1.0,1.0,0.0,'2',0.6617467999458313,0.6617467999458313,0.0,47.0
Happy,stimuli/41M_HA_O.BMP,stimuli/41M_HA_O.BMP,stimuli/40M_HA_O.BMP,stimuli/EmptyFrame.bmp,stimuli/RedFrame.bmp,1,Happy,Male,3,1,1.0,207.93466186523438,207.93466186523438,0.0,211.9364013671875,211.9364013671875,0.0,210.93197631835938,210.93197631835938,0.0,1.0,1.0,0.0,'1',0.7004165053367615,0.7004165053367615,0.0,48.0
Happy,stimuli/15F_HA_O.BMP,stimuli/15F_HA_O.BMP,stimuli/14F_HA_O.BMP,stimuli/EmptyFrame.bmp,stimuli/RedFrame.bmp,1,Happy,Female,3,1,1.0,211.96810913085938,211.96810913085938,0.0,215.95382690429688,215.95382690429688,0.0,214.97064208984375,214.97064208984375,0.0,1.0,1.0,0.0,'1',0.7186325788497925,0.7186325788497925,0.0,49.0
Happy,stimuli/13F_HA_O.BMP,stimuli/13F_HA_O.BMP,stimuli/12F_HA_O.BMP,stimuli/EmptyFrame.bmp,stimuli/RedFrame.bmp,1,Happy,Female,3,1,1.0,215.98507690429688,215.98507690429688,0.0,219.9701690673828,219.9701690673828,0.0,218.9854736328125,218.9854736328125,0.0,1.0,1.0,0.0,'1',0.6482331156730652,0.6482331156730652,0.0,50.0
Happy,stimuli/39M_HA_O.BMP,stimuli/38M_HA_O.BMP,stimuli/39M_HA_O.BMP,stimuli/EmptyFrame.bmp,stimuli/RedFrame.bmp,2,Happy,Male,3,1,1.0,219.99732971191406,219.99732971191406,0.0,223.9926300048828,223.9926300048828,0.0,223.00917053222656,223.00917053222656,0.0,1.0,1.0,0.0,'2',0.6144757270812988,0.6144757270812988,0.0,51.0
Happy,stimuli/37M_HA_O.BMP,stimuli/37M_HA_O.BMP,stimuli/36M_HA_O.BMP,stimuli/EmptyFrame.bmp,stimuli/RedFrame.bmp,1,Happy,Male,3,1,1.0,224.0238494873047,224.0238494873047,0.0,228.01513671875,228.01513671875,0.0,227.02854919433594,227.02854919433594,0.0,1.0,1.0,0.0,'1',0.6191052198410034,0.6191052198410034,0.0,52.0
Happy,stimuli/35M_HA_O.BMP,stimuli/34M_HA_O.BMP,stimuli/35M_HA_O.BMP,stimuli/EmptyFrame.bmp,stimuli/RedFrame.bmp,2,Happy,Male,3,1,1.0,228.04055786132812,228.04055786132812,0.0,232.03314208984375,232.03314208984375,0.0,231.04014587402344,231.04014587402344,0.0,1.0,1.0,0.0,'2',0.5940853953361511,0.5940853953361511,0.0,53.0
Happy,stimuli/11F_HA_O.BMP,stimuli/10F_HA_O.BMP,stimuli/11F_HA_O.BMP,stimuli/EmptyFrame.bmp,stimuli/RedFrame.bmp,2,Happy,Female,3,1,1.0,232.0609588623047,232.0609588623047,0.0,236.05584716796875,236.05584716796875,0.0,235.07098388671875,235.07098388671875,0.0,1.0,1.0,0.0,'2',0.6988738179206848,0.6988738179206848,0.0,54.0
Match Shape,stimuli/MatchShapes.bmp,stimuli/EmptyFace.bmp,stimuli/EmptyFace.bmp,stimuli/EmptyFrame.bmp,stimuli/EmptyFrame.bmp,Null,None,None,3,1,1.0,236.0811309814453,236.0811309814453,0.0,240.05758666992188,240.05758666992188,0.0,239.0691680908203,239.0691680908203,0.0,0.0,0.0,0.0,,,,,55.0
Shape,stimuli/circle.bmp,stimuli/vertical.bmp,stimuli/circle.bmp,stimuli/EmptyFrame.bmp,stimuli/RedFrame.bmp,2,Shape,None,3,1,1.0,240.0865478515625,240.0865478515625,0.0,244.07223510742188,244.07223510742188,0.0,243.09385681152344,243.09385681152344,0.0,1.0,1.0,0.0,'2',0.682110071182251,0.682110071182251,0.0,56.0
Shape,stimuli/horizontal.bmp,stimuli/circle.bmp,stimuli/horizontal.bmp,stimuli/EmptyFrame.bmp,stimuli/RedFrame.bmp,2,Shape,None,3,1,1.0,244.0940704345703,244.0940704345703,0.0,248.10617065429688,248.10617065429688,0.0,247.09783935546875,247.09783935546875,0.0,1.0,1.0,0.0,'2',0.9580197930335999,0.9580197930335999,0.0,57.0
Shape,stimuli/vertical.bmp,stimuli/vertical.bmp,stimuli/horizontal.bmp,stimuli/EmptyFrame.bmp,stimuli/RedFrame.bmp,1,Shape,None,3,1,1.0,248.14566040039062,248.14566040039062,0.0,252.1295166015625,252.1295166015625,0.0,251.13185119628906,251.13185119628906,0.0,1.0,1.0,0.0,'1',0.6996806859970093,0.6996806859970093,0.0,58.0
Shape,stimuli/horizontal.bmp,stimuli/circle.bmp,stimuli/horizontal.bmp,stimuli/EmptyFrame.bmp,stimuli/RedFrame.bmp,2,Shape,None,3,1,1.0,252.14759826660156,252.14759826660156,0.0,256.1456604003906,256.1456604003906,0.0,255.15853881835938,255.15853881835938,0.0,1.0,1.0,0.0,'2',0.5005204081535339,0.5005204081535339,0.0,59.0
Shape,stimuli/horizontal.bmp,stimuli/horizontal.bmp,stimuli/vertical.bmp,stimuli/EmptyFrame.bmp,stimuli/RedFrame.bmp,1,Shape,None,3,1,1.0,256.1680603027344,256.1680603027344,0.0,260.1684265136719,260.1684265136719,0.0,259.1720886230469,259.1720886230469,0.0,1.0,1.0,0.0,'1',0.6480246782302856,0.6480246782302856,0.0,60.0
Shape,stimuli/vertical.bmp,stimuli/vertical.bmp,stimuli/circle.bmp,stimuli/EmptyFrame.bmp,stimuli/RedFrame.bmp,1,Shape,None,3,1,1.0,260.19189453125,260.19189453125,0.0,264.18658447265625,264.18658447265625,0.0,263.1934509277344,263.1934509277344,0.0,1.0,1.0,0.0,'1',0.5851253271102905,0.5851253271102905,0.0,61.0
Shape,stimuli/circle.bmp,stimuli/horizontal.bmp,stimuli/circle.bmp,stimuli/EmptyFrame.bmp,stimuli/RedFrame.bmp,2,Shape,None,3,1,1.0,264.2074890136719,264.2074890136719,0.0,268.1990966796875,268.1990966796875,0.0,267.2129821777344,267.2129821777344,0.0,1.0,1.0,0.0,'2',0.5816289186477661,0.5816289186477661,0.0,62.0
Shape,stimuli/circle.bmp,stimuli/vertical.bmp,stimuli/circle.bmp,stimuli/EmptyFrame.bmp,stimuli/RedFrame.bmp,2,Shape,None,3,1,1.0,268.2225341796875,268.2225341796875,0.0,272.21929931640625,272.21929931640625,0.0,271.22491455078125,271.22491455078125,0.0,1.0,1.0,0.0,'2',0.8449645042419434,0.8449645042419434,0.0,63.0
Shape,stimuli/vertical.bmp,stimuli/vertical.bmp,stimuli/horizontal.bmp,stimuli/EmptyFrame.bmp,stimuli/RedFrame.bmp,1,Shape,None,3,1,1.0,272.2456359863281,272.2456359863281,0.0,276.2379150390625,276.2379150390625,0.0,275.24755859375,275.24755859375,0.0,1.0,1.0,0.0,'1',0.6218495965003967,0.6218495965003967,0.0,64.0
Shape,stimuli/horizontal.bmp,stimuli/horizontal.bmp,stimuli/circle.bmp,stimuli/EmptyFrame.bmp,stimuli/RedFrame.bmp,1,Shape,None,3,1,1.0,276.2599182128906,276.2599182128906,0.0,280.2587585449219,280.2587585449219,0.0,279.2739562988281,279.2739562988281,0.0,1.0,1.0,0.0,'1',0.5235207080841064,0.5235207080841064,0.0,65.0
MatchFaces,stimuli/MatchFaces.bmp,stimuli/EmptyFace.bmp,stimuli/EmptyFace.bmp,stimuli/EmptyFrame.bmp,stimuli/EmptyFrame.bmp,Null,None,None,3,1,1.0,280.42034912109375,280.42034912109375,0.0,284.2684326171875,284.2684326171875,0.0,283.2716979980469,283.2716979980469,0.0,0.0,0.0,0.0,,,,,66.0
Anger,stimuli/42M_AN_O.BMP,stimuli/42M_AN_O.BMP,stimuli/43M_AN_O.BMP,stimuli/EmptyFrame.bmp,stimuli/RedFrame.bmp,1,Anger,Male,3,1,1.0,284.3388977050781,284.3388977050781,0.0,288.294189453125,288.294189453125,0.0,287.2939453125,287.2939453125,0.0,1.0,1.0,0.0,'1',0.5771905779838562,0.5771905779838562,0.0,67.0
Anger,stimuli/07F_AN_O.BMP,stimuli/07F_AN_O.BMP,stimuli/14F_AN_O.BMP,stimuli/EmptyFrame.bmp,stimuli/RedFrame.bmp,1,Anger,Female,3,1,1.0,288.3294372558594,288.3294372558594,0.0,292.3064270019531,292.3064270019531,0.0,291.32733154296875,291.32733154296875,0.0,1.0,1.0,0.0,'1',0.6053134799003601,0.6053134799003601,0.0,68.0
Anger,stimuli/40M_AN_O.BMP,stimuli/41M_AN_O.BMP,stimuli/40M_AN_O.BMP,stimuli/EmptyFrame.bmp,stimuli/RedFrame.bmp,2,Anger,Male,3,1,1.0,292.3330383300781,292.3330383300781,0.0,296.3181457519531,296.3181457519531,0.0,295.34307861328125,295.34307861328125,0.0,1.0,1.0,0.0,'2',0.5639486908912659,0.5639486908912659,0.0,69.0
Anger,stimuli/38M_AN_O.BMP,stimuli/39M_AN_O.BMP,stimuli/38M_AN_O.BMP,stimuli/EmptyFrame.bmp,stimuli/RedFrame.bmp,2,Anger,Male,3,1,1.0,296.3486022949219,296.3486022949219,0.0,300.33648681640625,300.33648681640625,0.0,299.3542785644531,299.3542785644531,0.0,1.0,1.0,0.0,'2',0.6325200200080872,0.6325200200080872,0.0,70.0
Anger,stimuli/08F_AN_O.BMP,stimuli/08F_AN_O.BMP,stimuli/13F_AN_O.BMP,stimuli/EmptyFrame.bmp,stimuli/RedFrame.bmp,1,Anger,Female,3,1,1.0,300.36248779296875,300.36248779296875,0.0,304.35888671875,304.35888671875,0.0,303.3807373046875,303.3807373046875,0.0,1.0,1.0,0.0,'1',0.5675290822982788,0.5675290822982788,0.0,71.0
Anger,stimuli/36M_AN_O.BMP,stimuli/37M_AN_O.BMP,stimuli/36M_AN_O.BMP,stimuli/EmptyFrame.bmp,stimuli/RedFrame.bmp,2,Anger,Male,3,1,1.0,304.3840026855469,304.3840026855469,0.0,308.378662109375,308.378662109375,0.0,307.38824462890625,307.38824462890625,0.0,1.0,1.0,0.0,'2',0.8257613778114319,0.8257613778114319,0.0,72.0
Anger,stimuli/09F_AN_O.BMP,stimuli/12F_AN_O.BMP,stimuli/09F_AN_O.BMP,stimuli/EmptyFrame.bmp,stimuli/RedFrame.bmp,2,Anger,Female,3,1,1.0,308.41021728515625,308.41021728515625,0.0,312.3961486816406,312.3961486816406,0.0,311.4151611328125,311.4151611328125,0.0,1.0,1.0,0.0,'2',0.5279905796051025,0.5279905796051025,0.0,73.0
Anger,stimuli/34M_AN_O.BMP,stimuli/35M_AN_O.BMP,stimuli/34M_AN_O.BMP,stimuli/EmptyFrame.bmp,stimuli/RedFrame.bmp,2,Anger,Male,3,1,1.0,312.46185302734375,312.46185302734375,0.0,316.4076232910156,316.4076232910156,0.0,315.4275207519531,315.4275207519531,0.0,1.0,1.0,0.0,'2',0.6419594883918762,0.6419594883918762,0.0,74.0
Anger,stimuli/10F_AN_O.BMP,stimuli/10F_AN_O.BMP,stimuli/11F_AN_O.BMP,stimuli/EmptyFrame.bmp,stimuli/RedFrame.bmp,1,Anger,Female,3,1,1.0,316.43218994140625,316.43218994140625,0.0,320.425537109375,320.425537109375,0.0,319.4455261230469,319.4455261230469,0.0,1.0,1.0,0.0,'1',0.5280513167381287,0.5280513167381287,0.0,75.0
Anger,stimuli/12F_AN_O.BMP,stimuli/12F_AN_O.BMP,stimuli/13F_AN_O.BMP,stimuli/EmptyFrame.bmp,stimuli/RedFrame.bmp,1,Anger,Female,3,1,1.0,320.45147705078125,320.45147705078125,0.0,324.43829345703125,324.43829345703125,0.0,323.4620666503906,323.4620666503906,0.0,1.0,1.0,0.0,'1',0.6453464031219482,0.6453464031219482,0.0,76.0
MatchFaces,stimuli/MatchFaces.bmp,stimuli/EmptyFace.bmp,stimuli/EmptyFace.bmp,stimuli/EmptyFrame.bmp,stimuli/EmptyFrame.bmp,Null,None,None,3,1,1.0,324.6502685546875,324.6502685546875,0.0,328.43927001953125,328.43927001953125,0.0,327.46533203125,327.46533203125,0.0,0.0,0.0,0.0,,,,,77.0
Happy,stimuli/20M_HA_O.BMP,stimuli/21M_HA_O.BMP,stimuli/20M_HA_O.BMP,stimuli/EmptyFrame.bmp,stimuli/RedFrame.bmp,2,Happy,Male,3,1,1.0,328.5035095214844,328.5035095214844,0.0,332.4549865722656,332.4549865722656,0.0,331.4734191894531,331.4734191894531,0.0,1.0,1.0,0.0,'2',1.643570899963379,1.643570899963379,0.0,78.0
Happy,stimuli/01F_HA_O.bmp,stimuli/01F_HA_O.bmp,stimuli/02F_HA_O.bmp,stimuli/EmptyFrame.bmp,stimuli/RedFrame.bmp,1,Happy,Female,3,1,1.0,332.48480224609375,332.48480224609375,0.0,336.4687194824219,336.4687194824219,0.0,335.4874267578125,335.4874267578125,0.0,1.0,1.0,0.0,'1',0.554570198059082,0.554570198059082,0.0,79.0
Happy,stimuli/22M_HA_O.BMP,stimuli/23M_HA_O.BMP,stimuli/22M_HA_O.BMP,stimuli/EmptyFrame.bmp,stimuli/RedFrame.bmp,2,Happy,Male,3,1,1.0,336.5040283203125,336.5040283203125,0.0,340.48455810546875,340.48455810546875,0.0,339.4967041015625,339.4967041015625,0.0,1.0,1.0,0.0,'2',0.6406353116035461,0.6406353116035461,0.0,80.0
Happy,stimuli/24M_HA_O.BMP,stimuli/24M_HA_O.BMP,stimuli/25M_HA_O.BMP,stimuli/EmptyFrame.bmp,stimuli/RedFrame.bmp,1,Happy,Male,3,1,1.0,340.54345703125,340.54345703125,0.0,344.5079040527344,344.5079040527344,0.0,343.52197265625,343.52197265625,0.0,1.0,1.0,0.0,'1',0.724018394947052,0.724018394947052,0.0,81.0
Happy,stimuli/03F_HA_O.bmp,stimuli/05F_HA_O.bmp,stimuli/03F_HA_O.bmp,stimuli/EmptyFrame.bmp,stimuli/RedFrame.bmp,2,Happy,Female,3,1,1.0,344.5355529785156,344.5355529785156,0.0,348.5320129394531,348.5320129394531,0.0,347.54266357421875,347.54266357421875,0.0,1.0,1.0,0.0,'2',0.8303306102752686,0.8303306102752686,0.0,82.0
Happy,stimuli/26M_HA_O.BMP,stimuli/26M_HA_O.BMP,stimuli/27M_HA_O.BMP,stimuli/EmptyFrame.bmp,stimuli/RedFrame.bmp,1,Happy,Male,3,1,1.0,348.5615234375,348.5615234375,0.0,352.54931640625,352.54931640625,0.0,351.5602722167969,351.5602722167969,0.0,1.0,1.0,0.0,'1',0.6519861221313477,0.6519861221313477,0.0,83.0
Happy,stimuli/06F_HA_O.bmp,stimuli/07F_HA_O.BMP,stimuli/06F_HA_O.bmp,stimuli/EmptyFrame.bmp,stimuli/RedFrame.bmp,2,Happy,Female,3,1,1.0,352.57806396484375,352.57806396484375,0.0,356.5694580078125,356.5694580078125,0.0,355.5943298339844,355.5943298339844,0.0,1.0,1.0,0.0,'2',0.7179169058799744,0.7179169058799744,0.0,84.0
Happy,stimuli/08F_HA_O.BMP,stimuli/08F_HA_O.BMP,stimuli/09F_HA_O.BMP,stimuli/EmptyFrame.bmp,stimuli/RedFrame.bmp,1,Happy,Female,3,1,1.0,356.5981750488281,356.5981750488281,0.0,360.5796203613281,360.5796203613281,0.0,359.59375,359.59375,0.0,1.0,1.0,0.0,'1',0.8699002861976624,0.8699002861976624,0.0,85.0
Happy,stimuli/28M_HA_O.BMP,stimuli/29M_HA_O.BMP,stimuli/28M_HA_O.BMP,stimuli/EmptyFrame.bmp,stimuli/RedFrame.bmp,2,Happy,Male,3,1,1.0,360.6097106933594,360.6097106933594,0.0,364.5977783203125,364.5977783203125,0.0,363.6197204589844,363.6197204589844,0.0,1.0,1.0,0.0,'2',1.0076359510421753,1.0076359510421753,0.0,86.0
Happy,stimuli/10F_HA_O.BMP,stimuli/10F_HA_O.BMP,stimuli/06F_HA_O.bmp,stimuli/EmptyFrame.bmp,stimuli/RedFrame.bmp,1,Happy,Female,3,1,1.0,364.6212463378906,364.6212463378906,0.0,368.60955810546875,368.60955810546875,0.0,367.6215515136719,367.6215515136719,0.0,1.0,1.0,0.0,'1',0.6611453890800476,0.6611453890800476,0.0,87.0
MatchFaces,stimuli/MatchFaces.bmp,stimuli/EmptyFace.bmp,stimuli/EmptyFace.bmp,stimuli/EmptyFrame.bmp,stimuli/EmptyFrame.bmp,Null,None,None,3,1,1.0,368.75787353515625,368.75787353515625,0.0,372.6144714355469,372.6144714355469,0.0,371.6280517578125,371.6280517578125,0.0,0.0,0.0,0.0,,,,,88.0
Neutral,stimuli/07F_NE_C.BMP,stimuli/07F_NE_C.BMP,stimuli/14F_NE_C.BMP,stimuli/EmptyFrame.bmp,stimuli/RedFrame.bmp,1,Neutral,Female,3,1,1.0,372.6877136230469,372.6877136230469,0.0,376.6346740722656,376.6346740722656,0.0,375.6474304199219,375.6474304199219,0.0,1.0,1.0,0.0,'1',0.6616153717041016,0.6616153717041016,0.0,89.0
Neutral,stimuli/25M_NE_C.BMP,stimuli/29M_NE_C.BMP,stimuli/25M_NE_C.BMP,stimuli/EmptyFrame.bmp,stimuli/RedFrame.bmp,2,Neutral,Male,3,1,1.0,376.6615295410156,376.6615295410156,0.0,380.6507568359375,380.6507568359375,0.0,379.6725769042969,379.6725769042969,0.0,1.0,1.0,0.0,'2',0.6201642751693726,0.6201642751693726,0.0,90.0
Neutral,stimuli/26M_NE_C.BMP,stimuli/26M_NE_C.BMP,stimuli/28M_NE_C.BMP,stimuli/EmptyFrame.bmp,stimuli/RedFrame.bmp,1,Neutral,Male,3,1,1.0,380.6755065917969,380.6755065917969,0.0,384.6675720214844,384.6675720214844,0.0,383.6737060546875,383.6737060546875,0.0,1.0,1.0,0.0,'1',0.5209243893623352,0.5209243893623352,0.0,91.0
Neutral,stimuli/08F_NE_C.BMP,stimuli/13F_NE_C.BMP,stimuli/08F_NE_C.BMP,stimuli/EmptyFrame.bmp,stimuli/RedFrame.bmp,2,Neutral,Female,3,1,1.0,384.6929016113281,384.6929016113281,0.0,388.6933898925781,388.6933898925781,0.0,387.698974609375,387.698974609375,0.0,1.0,1.0,0.0,'2',0.6791824102401733,0.6791824102401733,0.0,92.0
Neutral,stimuli/09F_NE_C.BMP,stimuli/09F_NE_C.BMP,stimuli/12F_NE_C.BMP,stimuli/EmptyFrame.bmp,stimuli/RedFrame.bmp,1,Neutral,Female,3,1,1.0,388.7191467285156,388.7191467285156,0.0,392.7088928222656,392.7088928222656,0.0,391.724365234375,391.724365234375,0.0,1.0,1.0,0.0,'1',0.5573673844337463,0.5573673844337463,0.0,93.0
Neutral,stimuli/27M_NE_C.BMP,stimuli/26M_NE_C.BMP,stimuli/27M_NE_C.BMP,stimuli/EmptyFrame.bmp,stimuli/RedFrame.bmp,2,Neutral,Male,3,1,1.0,392.7291564941406,392.7291564941406,0.0,396.72760009765625,396.72760009765625,0.0,395.7394714355469,395.7394714355469,0.0,1.0,1.0,0.0,'2',0.5279589891433716,0.5279589891433716,0.0,94.0
Neutral,stimuli/28M_NE_C.BMP,stimuli/28M_NE_C.BMP,stimuli/25M_NE_C.BMP,stimuli/EmptyFrame.bmp,stimuli/RedFrame.bmp,1,Neutral,Male,3,1,1.0,396.74871826171875,396.74871826171875,0.0,400.74688720703125,400.74688720703125,0.0,399.75738525390625,399.75738525390625,0.0,1.0,1.0,0.0,'1',0.7309641242027283,0.7309641242027283,0.0,95.0
Neutral,stimuli/10F_NE_C.BMP,stimuli/11F_NE_C.BMP,stimuli/10F_NE_C.BMP,stimuli/EmptyFrame.bmp,stimuli/RedFrame.bmp,2,Neutral,Female,3,1,1.0,400.8138427734375,400.8138427734375,0.0,404.7643127441406,404.7643127441406,0.0,403.78057861328125,403.78057861328125,0.0,1.0,1.0,0.0,'2',0.5436643958091736,0.5436643958091736,0.0,96.0
Neutral,stimuli/29M_NE_C.BMP,stimuli/29M_NE_C.BMP,stimuli/24M_NE_C.BMP,stimuli/EmptyFrame.bmp,stimuli/RedFrame.bmp,1,Neutral,Male,3,1,1.0,404.7884521484375,404.7884521484375,0.0,408.7922058105469,408.7922058105469,0.0,407.8063659667969,407.8063659667969,0.0,1.0,1.0,0.0,'1',0.6052030920982361,0.6052030920982361,0.0,97.0
Neutral,stimuli/11F_NE_C.BMP,stimuli/10F_NE_C.BMP,stimuli/11F_NE_C.BMP,stimuli/EmptyFrame.bmp,stimuli/RedFrame.bmp,2,Neutral,Female,3,1,1.0,408.81964111328125,408.81964111328125,0.0,412.8048400878906,412.8048400878906,0.0,411.82177734375,411.82177734375,0.0,1.0,1.0,0.0,'2',0.5144069194793701,0.5144069194793701,0.0,98.0
MatchFaces,stimuli/MatchFaces.bmp,stimuli/EmptyFace.bmp,stimuli/EmptyFace.bmp,stimuli/EmptyFrame.bmp,stimuli/EmptyFrame.bmp,Null,None,None,3,1,1.0,412.9288635253906,412.9288635253906,0.0,416.8119201660156,416.8119201660156,0.0,415.82171630859375,415.82171630859375,0.0,0.0,0.0,0.0,,,,,99.0
Fear,stimuli/23M_FE_O.BMP,stimuli/23M_FE_O.BMP,stimuli/24M_FE_O.BMP,stimuli/EmptyFrame.bmp,stimuli/RedFrame.bmp,1,Fear,Male,3,1,1.0,416.8895263671875,416.8895263671875,0.0,420.827392578125,420.827392578125,0.0,419.84869384765625,419.84869384765625,0.0,1.0,1.0,0.0,'1',0.7400122880935669,0.7400122880935669,0.0,100.0
Fear,stimuli/19F_FE_O.BMP,stimuli/18F_FE_O.BMP,stimuli/19F_FE_O.BMP,stimuli/EmptyFrame.bmp,stimuli/RedFrame.bmp,2,Fear,Female,3,1,1.0,420.8544006347656,420.8544006347656,0.0,424.84710693359375,424.84710693359375,0.0,423.8665466308594,423.8665466308594,0.0,1.0,1.0,0.0,'2',0.5285018086433411,0.5285018086433411,0.0,101.0
Fear,stimuli/17F_FE_O.BMP,stimuli/17F_FE_O.BMP,stimuli/16F_FE_O.BMP,stimuli/EmptyFrame.bmp,stimuli/RedFrame.bmp,1,Fear,Female,3,1,1.0,424.8797607421875,424.8797607421875,0.0,428.86859130859375,428.86859130859375,0.0,427.8742980957031,427.8742980957031,0.0,1.0,1.0,0.0,'1',0.6912084817886353,0.6912084817886353,0.0,102.0
Fear,stimuli/15F_FE_O.BMP,stimuli/18F_FE_O.BMP,stimuli/15F_FE_O.BMP,stimuli/EmptyFrame.bmp,stimuli/RedFrame.bmp,2,Fear,Female,3,1,1.0,428.894775390625,428.894775390625,0.0,432.8956604003906,432.8956604003906,0.0,431.89093017578125,431.89093017578125,0.0,1.0,1.0,0.0,'2',0.7761602997779846,0.7761602997779846,0.0,103.0
Fear,stimuli/21M_FE_O.BMP,stimuli/21M_FE_O.BMP,stimuli/22M_FE_O.BMP,stimuli/EmptyFrame.bmp,stimuli/RedFrame.bmp,1,Fear,Male,3,1,1.0,432.9327697753906,432.9327697753906,0.0,436.9222412109375,436.9222412109375,0.0,435.9236145019531,435.9236145019531,0.0,1.0,1.0,0.0,'1',0.6902238130569458,0.6902238130569458,0.0,104.0
Fear,stimuli/29M_FE_O.BMP,stimuli/30M_FE_O.BMP,stimuli/29M_FE_O.BMP,stimuli/EmptyFrame.bmp,stimuli/RedFrame.bmp,2,Fear,Male,3,1,1.0,436.95269775390625,436.95269775390625,0.0,440.93646240234375,440.93646240234375,0.0,439.9493103027344,439.9493103027344,0.0,1.0,1.0,0.0,'2',0.5893588066101074,0.5893588066101074,0.0,105.0
Fear,stimuli/31M_FE_O.BMP,stimuli/31M_FE_O.BMP,stimuli/38M_FE_O.BMP,stimuli/EmptyFrame.bmp,stimuli/RedFrame.bmp,1,Fear,Male,3,1,1.0,440.9658203125,440.9658203125,0.0,444.953369140625,444.953369140625,0.0,443.9665222167969,443.9665222167969,0.0,1.0,1.0,0.0,'1',0.5465191006660461,0.5465191006660461,0.0,106.0
Fear,stimuli/09F_FE_O.BMP,stimuli/07F_FE_O.BMP,stimuli/09F_FE_O.BMP,stimuli/EmptyFrame.bmp,stimuli/RedFrame.bmp,2,Fear,Female,3,1,1.0,444.98345947265625,444.98345947265625,0.0,448.9669189453125,448.9669189453125,0.0,447.9875183105469,447.9875183105469,0.0,1.0,1.0,0.0,'2',0.7537100911140442,0.7537100911140442,0.0,107.0
Fear,stimuli/11F_FE_O.BMP,stimuli/12F_FE_O.BMP,stimuli/11F_FE_O.BMP,stimuli/EmptyFrame.bmp,stimuli/RedFrame.bmp,2,Fear,Female,3,1,1.0,448.9941711425781,448.9941711425781,0.0,452.9888916015625,452.9888916015625,0.0,451.99615478515625,451.99615478515625,0.0,1.0,1.0,0.0,'2',0.7430263161659241,0.7430263161659241,0.0,108.0
Fear,stimuli/34M_FE_O.BMP,stimuli/34M_FE_O.BMP,stimuli/33M_FE_O.BMP,stimuli/EmptyFrame.bmp,stimuli/RedFrame.bmp,1,Fear,Male,3,1,1.0,453.0213928222656,453.0213928222656,0.0,457.0031433105469,457.0031433105469,0.0,456.0159912109375,456.0159912109375,0.0,1.0,1.0,0.0,'1',0.8304954171180725,0.8304954171180725,0.0,109.0

extraInfo
participant,sub004
session,002
date,2025_May_16_0903
expName,HaririTask_Ver1
psychopyVersion,3.0.1
frameRate,None
