TrialType,Top,Left,Right,EmptyFrame,SelectedFrame,Correct,Emotion,Gender,TrialLength,FixationLength,trials.thisRepN,trials.thisTrialN,trials.thisN,trials.thisIndex,key_resp_starttask.keys,key_resp_starttask.rt,GCBeginningFixationStartTime,GCBeginningFixationEndTime,key_resp_trial.keys,key_resp_trial.corr,GCFaceStartTime,GCPostFaceFixationStartTime,GCPostFaceFixationEndTime,key_resp_trial.rt,GCEndingFixationStartTime,GCEndingFixationEndTime,participant,session,date,expName,psychopyVersion,frameRate,
,,,,,,,,,,,,,,,5,196.40642700064927,,,,,,,,,,,sub015,001,2025_Jun_24_0910,HaririTask_Ver1,3.0.1,None,
MatchFaces,stimuli/MatchFaces.bmp,stimuli/EmptyFace.bmp,stimuli/EmptyFace.bmp,stimuli/EmptyFrame.bmp,stimuli/EmptyFrame.bmp,Null,None,None,3,1,0,0,0,0,,,2.6999041438102722e-06,15.0087660998106,None,0,15.283487999811769,18.063527800142765,19.052540299482644,,,,sub015,001,2025_Jun_24_0910,HaririTask_Ver1,3.0.1,None,
Anger,stimuli/01F_AN_O.bmp,stimuli/19F_AN_O.BMP,stimuli/01F_AN_O.bmp,stimuli/EmptyFrame.bmp,stimuli/RedFrame.bmp,2,Anger,Female,3,1,0,1,1,1,,,,,2,1,19.234579700045288,22.08647589944303,23.073802899569273,0.7258299998939037,,,sub015,001,2025_Jun_24_0910,HaririTask_Ver1,3.0.1,None,
Anger,stimuli/02f_an_o.bmp,stimuli/18F_AN_O.BMP,stimuli/02f_an_o.bmp,stimuli/EmptyFrame.bmp,stimuli/RedFrame.bmp,2,Anger,Female,3,1,0,2,2,2,,,,,2,1,23.1052468996495,26.10340389981866,27.092815100215375,0.7092489004135132,,,sub015,001,2025_Jun_24_0910,HaririTask_Ver1,3.0.1,None,
Anger,stimuli/20M_AN_O.BMP,stimuli/34M_AN_O.BMP,stimuli/20M_AN_O.BMP,stimuli/EmptyFrame.bmp,stimuli/RedFrame.bmp,2,Anger,Male,3,1,0,3,3,3,,,,,2,1,27.117022800259292,30.113570200279355,31.11012940015644,1.1040663998574018,,,sub015,001,2025_Jun_24_0910,HaririTask_Ver1,3.0.1,None,
Anger,stimuli/03F_AN_O.bmp,stimuli/03F_AN_O.bmp,stimuli/17F_AN_O.BMP,stimuli/EmptyFrame.bmp,stimuli/RedFrame.bmp,1,Anger,Female,3,1,0,4,4,4,,,,,1,1,31.14337550010532,34.15194369945675,35.12854509986937,0.7801743997260928,,,sub015,001,2025_Jun_24_0910,HaririTask_Ver1,3.0.1,None,
Anger,stimuli/21M_AN_O.BMP,stimuli/21M_AN_O.BMP,stimuli/33M_AN_O.BMP,stimuli/EmptyFrame.bmp,stimuli/RedFrame.bmp,1,Anger,Male,3,1,0,5,5,5,,,,,1,1,35.15822390001267,38.174202599562705,39.14552900008857,0.7583159003406763,,,sub015,001,2025_Jun_24_0910,HaririTask_Ver1,3.0.1,None,
Anger,stimuli/22M_AN_O.BMP,stimuli/32M_AN_O.BMP,stimuli/22M_AN_O.BMP,stimuli/EmptyFrame.bmp,stimuli/RedFrame.bmp,2,Anger,Male,3,1,0,6,6,6,,,,,2,1,39.17277370020747,42.169759599491954,43.15731879975647,0.8181017003953457,,,sub015,001,2025_Jun_24_0910,HaririTask_Ver1,3.0.1,None,
Anger,stimuli/23M_AN_O.BMP,stimuli/23M_AN_O.BMP,stimuli/31M_AN_O.BMP,stimuli/EmptyFrame.bmp,stimuli/RedFrame.bmp,1,Anger,Male,3,1,0,7,7,7,,,,,1,1,43.183831099420786,46.180987999774516,47.18112969957292,0.7503423001617193,,,sub015,001,2025_Jun_24_0910,HaririTask_Ver1,3.0.1,None,
Anger,stimuli/05F_AN_O.bmp,stimuli/05F_AN_O.bmp,stimuli/16F_AN_O.BMP,stimuli/EmptyFrame.bmp,stimuli/RedFrame.bmp,1,Anger,Female,3,1,0,8,8,8,,,,,1,1,47.22165500000119,50.20519919972867,51.201347599737346,0.8751291995868087,,,sub015,001,2025_Jun_24_0910,HaririTask_Ver1,3.0.1,None,
Anger,stimuli/06F_AN_O.bmp,stimuli/15F_AN_O.BMP,stimuli/06F_AN_O.bmp,stimuli/EmptyFrame.bmp,stimuli/RedFrame.bmp,2,Anger,Female,3,1,0,9,9,9,,,,,2,1,51.23630919959396,54.23091079946607,55.222457099705935,0.8538796994835138,,,sub015,001,2025_Jun_24_0910,HaririTask_Ver1,3.0.1,None,
Anger,stimuli/24M_AN_O.BMP,stimuli/24M_AN_O.BMP,stimuli/30M_AN_O.BMP,stimuli/EmptyFrame.bmp,stimuli/RedFrame.bmp,1,Anger,Male,3,1,0,10,10,10,,,,,1,1,55.25191599968821,58.24638899974525,59.2386560998857,0.9964089002460241,,,sub015,001,2025_Jun_24_0910,HaririTask_Ver1,3.0.1,None,
MatchShape,stimuli/MatchShapes.bmp,stimuli/EmptyFace.bmp,stimuli/EmptyFace.bmp,stimuli/EmptyFrame.bmp,stimuli/EmptyFrame.bmp,Null,None,None,3,1,0,11,11,11,,,,,None,0,59.26731160003692,62.24718420021236,63.24727309960872,,,,sub015,001,2025_Jun_24_0910,HaririTask_Ver1,3.0.1,None,
Shape,stimuli/horizontal.bmp,stimuli/horizontal.bmp,stimuli/circle.bmp,stimuli/EmptyFrame.bmp,stimuli/RedFrame.bmp,1,Shape,None,3,1,0,12,12,12,,,,,1,1,63.28107700031251,66.28370319958776,67.26466829981655,0.8270438993349671,,,sub015,001,2025_Jun_24_0910,HaririTask_Ver1,3.0.1,None,
Shape,stimuli/vertical.bmp,stimuli/horizontal.bmp,stimuli/vertical.bmp,stimuli/EmptyFrame.bmp,stimuli/RedFrame.bmp,2,Shape,None,3,1,0,13,13,13,,,,,2,1,67.29156939964741,70.3022622000426,71.28143829945475,0.7379804998636246,,,sub015,001,2025_Jun_24_0910,HaririTask_Ver1,3.0.1,None,
Shape,stimuli/horizontal.bmp,stimuli/horizontal.bmp,stimuli/vertical.bmp,stimuli/EmptyFrame.bmp,stimuli/RedFrame.bmp,1,Shape,None,3,1,0,14,14,14,,,,,1,1,71.30472229979932,74.30296290013939,75.30251479987055,0.5832762997597456,,,sub015,001,2025_Jun_24_0910,HaririTask_Ver1,3.0.1,None,
Shape,stimuli/horizontal.bmp,stimuli/circle.bmp,stimuli/horizontal.bmp,stimuli/EmptyFrame.bmp,stimuli/RedFrame.bmp,2,Shape,None,3,1,0,15,15,15,,,,,2,1,75.32678550016135,78.33080129977316,79.32325700018555,0.6672693993896246,,,sub015,001,2025_Jun_24_0910,HaririTask_Ver1,3.0.1,None,
Shape,stimuli/circle.bmp,stimuli/circle.bmp,stimuli/vertical.bmp,stimuli/EmptyFrame.bmp,stimuli/RedFrame.bmp,1,Shape,None,3,1,0,16,16,16,,,,,1,1,79.342424900271,82.35675030015409,83.34118570014834,0.5340055003762245,,,sub015,001,2025_Jun_24_0910,HaririTask_Ver1,3.0.1,None,
Shape,stimuli/circle.bmp,stimuli/circle.bmp,stimuli/horizontal.bmp,stimuli/EmptyFrame.bmp,stimuli/RedFrame.bmp,1,Shape,None,3,1,0,17,17,17,,,,,1,1,83.36343059968203,86.36130869947374,87.35919000022113,0.5662134001031518,,,sub015,001,2025_Jun_24_0910,HaririTask_Ver1,3.0.1,None,
Shape,stimuli/vertical.bmp,stimuli/circle.bmp,stimuli/vertical.bmp,stimuli/EmptyFrame.bmp,stimuli/RedFrame.bmp,2,Shape,None,3,1,0,18,18,18,,,,,2,1,87.38156529981643,90.38939569983631,91.36896840017289,0.5859399996697903,,,sub015,001,2025_Jun_24_0910,HaririTask_Ver1,3.0.1,None,
Shape,stimuli/circle.bmp,stimuli/vertical.bmp,stimuli/circle.bmp,stimuli/EmptyFrame.bmp,stimuli/RedFrame.bmp,2,Shape,None,3,1,0,19,19,19,,,,,2,1,91.39061030000448,94.39352079946548,95.37975999992341,0.6067452002316713,,,sub015,001,2025_Jun_24_0910,HaririTask_Ver1,3.0.1,None,
Shape,stimuli/vertical.bmp,stimuli/horizontal.bmp,stimuli/vertical.bmp,stimuli/EmptyFrame.bmp,stimuli/RedFrame.bmp,2,Shape,None,3,1,0,20,20,20,,,,,2,1,95.40151869971305,98.41175050009042,99.38976339995861,0.8361868998035789,,,sub015,001,2025_Jun_24_0910,HaririTask_Ver1,3.0.1,None,
Shape,stimuli/vertical.bmp,stimuli/vertical.bmp,stimuli/circle.bmp,stimuli/EmptyFrame.bmp,stimuli/RedFrame.bmp,1,Shape,None,3,1,0,21,21,21,,,,,1,1,99.4117984995246,102.41246449947357,103.40505960024893,0.6140045002102852,,,sub015,001,2025_Jun_24_0910,HaririTask_Ver1,3.0.1,None,
MatchFaces,stimuli/MatchFaces.bmp,stimuli/EmptyFace.bmp,stimuli/EmptyFace.bmp,stimuli/EmptyFrame.bmp,stimuli/EmptyFrame.bmp,Null,None,None,3,1,0,22,22,22,,,,,None,0,103.61610709968954,106.4262129003182,107.40821759961545,,,,sub015,001,2025_Jun_24_0910,HaririTask_Ver1,3.0.1,None,
Neutral,stimuli/20M_NE_C.BMP,stimuli/21M_NE_C.BMP,stimuli/20M_NE_C.BMP,stimuli/EmptyFrame.bmp,stimuli/RedFrame.bmp,2,Neutral,Male,3,1,0,23,23,23,,,,,2,1,107.53210309986025,110.43592169973999,111.42556209955364,1.156062399968505,,,sub015,001,2025_Jun_24_0910,HaririTask_Ver1,3.0.1,None,
Neutral,stimuli/01F_NE_C.bmp,stimuli/01F_NE_C.bmp,stimuli/02F_NE_C.bmp,stimuli/EmptyFrame.bmp,stimuli/RedFrame.bmp,1,Neutral,Female,3,1,0,24,24,24,,,,,1,1,111.45640250016004,114.45040920004249,115.43834710028023,0.8218980003148317,,,sub015,001,2025_Jun_24_0910,HaririTask_Ver1,3.0.1,None,
Neutral,stimuli/22M_NE_C.BMP,stimuli/23M_NE_C.BMP,stimuli/22M_NE_C.BMP,stimuli/EmptyFrame.bmp,stimuli/RedFrame.bmp,2,Neutral,Male,3,1,0,25,25,25,,,,,2,1,115.46867110021412,118.47101109940559,119.44887339975685,0.980922999791801,,,sub015,001,2025_Jun_24_0910,HaririTask_Ver1,3.0.1,None,
Neutral,stimuli/24M_NE_C.BMP,stimuli/24M_NE_C.BMP,stimuli/25M_NE_C.BMP,stimuli/EmptyFrame.bmp,stimuli/RedFrame.bmp,1,Neutral,Male,3,1,0,26,26,26,,,,,1,1,119.47866090014577,122.47864129953086,123.4648324996233,0.8913500001654029,,,sub015,001,2025_Jun_24_0910,HaririTask_Ver1,3.0.1,None,
Neutral,stimuli/03F_NE_C.bmp,stimuli/05F_NE_C.bmp,stimuli/03F_NE_C.bmp,stimuli/EmptyFrame.bmp,stimuli/RedFrame.bmp,2,Neutral,Female,3,1,0,27,27,27,,,,,2,1,123.49341829959303,126.48729069996625,127.47777619957924,0.864656699821353,,,sub015,001,2025_Jun_24_0910,HaririTask_Ver1,3.0.1,None,
Neutral,stimuli/26M_NE_C.BMP,stimuli/26M_NE_C.BMP,stimuli/27M_NE_C.BMP,stimuli/EmptyFrame.bmp,stimuli/RedFrame.bmp,1,Neutral,Male,3,1,0,28,28,28,,,,,1,1,127.50671650003642,130.49861839972436,131.48639929946512,1.056419799104333,,,sub015,001,2025_Jun_24_0910,HaririTask_Ver1,3.0.1,None,
Neutral,stimuli/06F_NE_C.bmp,stimuli/07F_NE_C.BMP,stimuli/06F_NE_C.bmp,stimuli/EmptyFrame.bmp,stimuli/RedFrame.bmp,2,Neutral,Female,3,1,0,29,29,29,,,,,2,1,131.51399479992688,134.51229409966618,135.49726520013064,0.9081701999530196,,,sub015,001,2025_Jun_24_0910,HaririTask_Ver1,3.0.1,None,
Neutral,stimuli/08F_NE_C.BMP,stimuli/08F_NE_C.BMP,stimuli/09F_NE_C.BMP,stimuli/EmptyFrame.bmp,stimuli/RedFrame.bmp,1,Neutral,Female,3,1,0,30,30,30,,,,,1,1,135.528999700211,138.53259909991175,139.51204860024154,0.8810551008209586,,,sub015,001,2025_Jun_24_0910,HaririTask_Ver1,3.0.1,None,
Neutral,stimuli/28M_NE_C.BMP,stimuli/29M_NE_C.BMP,stimuli/28M_NE_C.BMP,stimuli/EmptyFrame.bmp,stimuli/RedFrame.bmp,2,Neutral,Male,3,1,0,31,31,31,,,,,2,1,139.54049859941006,142.53542730025947,143.53096789959818,1.0504593001678586,,,sub015,001,2025_Jun_24_0910,HaririTask_Ver1,3.0.1,None,
Neutral,stimuli/10F_NE_C.BMP,stimuli/10F_NE_C.BMP,stimuli/06F_NE_C.bmp,stimuli/EmptyFrame.bmp,stimuli/RedFrame.bmp,1,Neutral,Female,3,1,0,32,32,32,,,,,1,1,143.56149309966713,146.56809229962528,147.55909289978445,0.8670246005058289,,,sub015,001,2025_Jun_24_0910,HaririTask_Ver1,3.0.1,None,
MatchFaces,stimuli/MatchFaces.bmp,stimuli/EmptyFace.bmp,stimuli/EmptyFace.bmp,stimuli/EmptyFrame.bmp,stimuli/EmptyFrame.bmp,Null,None,None,3,1,0,33,33,33,,,,,None,0,147.8147857999429,150.56671980023384,151.56727449968457,,,,sub015,001,2025_Jun_24_0910,HaririTask_Ver1,3.0.1,None,
Fear,stimuli/07F_FE_O.BMP,stimuli/07F_FE_O.BMP,stimuli/14F_FE_O.BMP,stimuli/EmptyFrame.bmp,stimuli/RedFrame.bmp,1,Fear,Female,3,1,0,34,34,34,,,,,1,1,151.7044179001823,154.58947450015694,155.58522260002792,0.8219695007428527,,,sub015,001,2025_Jun_24_0910,HaririTask_Ver1,3.0.1,None,
Fear,stimuli/25M_FE_O.BMP,stimuli/29M_FE_O.BMP,stimuli/25M_FE_O.BMP,stimuli/EmptyFrame.bmp,stimuli/RedFrame.bmp,2,Fear,Male,3,1,0,35,35,35,,,,,2,1,155.6103561995551,158.6372611997649,159.60469119995832,0.7361097000539303,,,sub015,001,2025_Jun_24_0910,HaririTask_Ver1,3.0.1,None,
Fear,stimuli/26M_FE_O.BMP,stimuli/26M_FE_O.BMP,stimuli/28M_FE_O.BMP,stimuli/EmptyFrame.bmp,stimuli/RedFrame.bmp,1,Fear,Male,3,1,0,36,36,36,,,,,1,1,159.63968789950013,162.63363370019943,163.61752209998667,0.7557463999837637,,,sub015,001,2025_Jun_24_0910,HaririTask_Ver1,3.0.1,None,
Fear,stimuli/08F_FE_O.BMP,stimuli/13F_FE_O.BMP,stimuli/08F_FE_O.BMP,stimuli/EmptyFrame.bmp,stimuli/RedFrame.bmp,2,Fear,Female,3,1,0,37,37,37,,,,,2,1,163.64452730026096,166.63909150008112,167.6320578996092,0.828549699857831,,,sub015,001,2025_Jun_24_0910,HaririTask_Ver1,3.0.1,None,
Fear,stimuli/09F_FE_O.BMP,stimuli/09F_FE_O.BMP,stimuli/12F_FE_O.BMP,stimuli/EmptyFrame.bmp,stimuli/RedFrame.bmp,1,Fear,Female,3,1,0,38,38,38,,,,,1,1,167.66098880022764,170.66563360020518,171.64625800028443,0.88467220030725,,,sub015,001,2025_Jun_24_0910,HaririTask_Ver1,3.0.1,None,
Fear,stimuli/27M_FE_O.BMP,stimuli/26M_FE_O.BMP,stimuli/27M_FE_O.BMP,stimuli/EmptyFrame.bmp,stimuli/RedFrame.bmp,2,Fear,Male,3,1,0,39,39,39,,,,,2,1,171.67047529947013,174.6754189003259,175.66908309981227,0.7876316998153925,,,sub015,001,2025_Jun_24_0910,HaririTask_Ver1,3.0.1,None,
Fear,stimuli/28M_FE_O.BMP,stimuli/28M_FE_O.BMP,stimuli/25M_FE_O.BMP,stimuli/EmptyFrame.bmp,stimuli/RedFrame.bmp,1,Fear,Male,3,1,0,40,40,40,,,,,1,1,175.69431019946933,178.69084599986672,179.68220120016485,0.7349597997963428,,,sub015,001,2025_Jun_24_0910,HaririTask_Ver1,3.0.1,None,
Fear,stimuli/10F_FE_O.BMP,stimuli/11F_FE_O.BMP,stimuli/10F_FE_O.BMP,stimuli/EmptyFrame.bmp,stimuli/RedFrame.bmp,2,Fear,Female,3,1,0,41,41,41,,,,,2,1,179.7085122000426,182.7062790002674,183.69472599960864,1.0535034006461501,,,sub015,001,2025_Jun_24_0910,HaririTask_Ver1,3.0.1,None,
Fear,stimuli/29M_FE_O.BMP,stimuli/29M_FE_O.BMP,stimuli/24M_FE_O.BMP,stimuli/EmptyFrame.bmp,stimuli/RedFrame.bmp,1,Fear,Male,3,1,0,42,42,42,,,,,1,1,183.7215388994664,186.72664839960635,187.71614659950137,0.7973018996417522,,,sub015,001,2025_Jun_24_0910,HaririTask_Ver1,3.0.1,None,
Fear,stimuli/11F_FE_O.BMP,stimuli/10F_FE_O.BMP,stimuli/11F_FE_O.BMP,stimuli/EmptyFrame.bmp,stimuli/RedFrame.bmp,2,Fear,Female,3,1,0,43,43,43,,,,,2,1,187.74003850016743,190.7469001999125,191.73331899940968,0.9247272005304694,,,sub015,001,2025_Jun_24_0910,HaririTask_Ver1,3.0.1,None,
MatchFaces,stimuli/MatchFaces.bmp,stimuli/EmptyFace.bmp,stimuli/EmptyFace.bmp,stimuli/EmptyFrame.bmp,stimuli/EmptyFrame.bmp,Null,None,None,3,1,0,44,44,44,,,,,None,0,191.89131779968739,194.74800589960068,195.7410597000271,,,,sub015,001,2025_Jun_24_0910,HaririTask_Ver1,3.0.1,None,
Happy,stimuli/19F_HA_O.BMP,stimuli/19F_HA_O.BMP,stimuli/18F_HA_O.BMP,stimuli/EmptyFrame.bmp,stimuli/RedFrame.bmp,1,Happy,Female,3,1,0,45,45,45,,,,,1,1,195.8227102998644,198.7663926994428,199.75826669950038,0.7499131001532078,,,sub015,001,2025_Jun_24_0910,HaririTask_Ver1,3.0.1,None,
Happy,stimuli/17F_HA_O.BMP,stimuli/16F_HA_O.BMP,stimuli/17F_HA_O.BMP,stimuli/EmptyFrame.bmp,stimuli/RedFrame.bmp,2,Happy,Female,3,1,0,46,46,46,,,,,2,1,199.78384889941663,202.78785459976643,203.77603320032358,0.9280446004122496,,,sub015,001,2025_Jun_24_0910,HaririTask_Ver1,3.0.1,None,
Happy,stimuli/43M_HA_O.BMP,stimuli/42M_HA_O.BMP,stimuli/43M_HA_O.BMP,stimuli/EmptyFrame.bmp,stimuli/RedFrame.bmp,2,Happy,Male,3,1,0,47,47,47,,,,,2,1,203.80148319993168,206.81639089994133,207.79760819952935,0.9882477996870875,,,sub015,001,2025_Jun_24_0910,HaririTask_Ver1,3.0.1,None,
Happy,stimuli/41M_HA_O.BMP,stimuli/41M_HA_O.BMP,stimuli/40M_HA_O.BMP,stimuli/EmptyFrame.bmp,stimuli/RedFrame.bmp,1,Happy,Male,3,1,0,48,48,48,,,,,1,1,207.82656439952552,210.82583019975573,211.8126967996359,0.8806921001523733,,,sub015,001,2025_Jun_24_0910,HaririTask_Ver1,3.0.1,None,
Happy,stimuli/15F_HA_O.BMP,stimuli/15F_HA_O.BMP,stimuli/14F_HA_O.BMP,stimuli/EmptyFrame.bmp,stimuli/RedFrame.bmp,1,Happy,Female,3,1,0,49,49,49,,,,,1,1,211.83840269967914,214.8415164994076,215.82524279970676,1.018078200519085,,,sub015,001,2025_Jun_24_0910,HaririTask_Ver1,3.0.1,None,
Happy,stimuli/13F_HA_O.BMP,stimuli/13F_HA_O.BMP,stimuli/12F_HA_O.BMP,stimuli/EmptyFrame.bmp,stimuli/RedFrame.bmp,1,Happy,Female,3,1,0,50,50,50,,,,,1,1,215.85597809962928,218.85984549950808,219.84349859971553,0.9765737997367978,,,sub015,001,2025_Jun_24_0910,HaririTask_Ver1,3.0.1,None,
Happy,stimuli/39M_HA_O.BMP,stimuli/38M_HA_O.BMP,stimuli/39M_HA_O.BMP,stimuli/EmptyFrame.bmp,stimuli/RedFrame.bmp,2,Happy,Male,3,1,0,51,51,51,,,,,2,1,219.871533700265,222.87361739948392,223.8625512002036,0.9242316000163555,,,sub015,001,2025_Jun_24_0910,HaririTask_Ver1,3.0.1,None,
Happy,stimuli/37M_HA_O.BMP,stimuli/37M_HA_O.BMP,stimuli/36M_HA_O.BMP,stimuli/EmptyFrame.bmp,stimuli/RedFrame.bmp,1,Happy,Male,3,1,0,52,52,52,,,,,1,1,223.8923742994666,226.9054530998692,227.8947452995926,0.8347689993679523,,,sub015,001,2025_Jun_24_0910,HaririTask_Ver1,3.0.1,None,
Happy,stimuli/35M_HA_O.BMP,stimuli/34M_HA_O.BMP,stimuli/35M_HA_O.BMP,stimuli/EmptyFrame.bmp,stimuli/RedFrame.bmp,2,Happy,Male,3,1,0,53,53,53,,,,,2,1,227.93093280028552,230.91993429977447,231.9068479994312,0.9865683000534773,,,sub015,001,2025_Jun_24_0910,HaririTask_Ver1,3.0.1,None,
Happy,stimuli/11F_HA_O.BMP,stimuli/10F_HA_O.BMP,stimuli/11F_HA_O.BMP,stimuli/EmptyFrame.bmp,stimuli/RedFrame.bmp,2,Happy,Female,3,1,0,54,54,54,,,,,2,1,231.93166789971292,234.93727319967002,235.91867060028017,0.887151800096035,,,sub015,001,2025_Jun_24_0910,HaririTask_Ver1,3.0.1,None,
Match Shape,stimuli/MatchShapes.bmp,stimuli/EmptyFace.bmp,stimuli/EmptyFace.bmp,stimuli/EmptyFrame.bmp,stimuli/EmptyFrame.bmp,Null,None,None,3,1,0,55,55,55,,,,,None,0,235.95184910017997,238.92665520031005,239.91991739999503,,,,sub015,001,2025_Jun_24_0910,HaririTask_Ver1,3.0.1,None,
Shape,stimuli/circle.bmp,stimuli/vertical.bmp,stimuli/circle.bmp,stimuli/EmptyFrame.bmp,stimuli/RedFrame.bmp,2,Shape,None,3,1,0,56,56,56,,,,,2,1,239.96701280027628,242.95683200005442,243.93776169978082,0.6084348000586033,,,sub015,001,2025_Jun_24_0910,HaririTask_Ver1,3.0.1,None,
Shape,stimuli/horizontal.bmp,stimuli/circle.bmp,stimuli/horizontal.bmp,stimuli/EmptyFrame.bmp,stimuli/RedFrame.bmp,2,Shape,None,3,1,0,57,57,57,,,,,2,1,243.95808279979974,246.96005649957806,247.94853939954191,0.7015781002119184,,,sub015,001,2025_Jun_24_0910,HaririTask_Ver1,3.0.1,None,
Shape,stimuli/vertical.bmp,stimuli/vertical.bmp,stimuli/horizontal.bmp,stimuli/EmptyFrame.bmp,stimuli/RedFrame.bmp,1,Shape,None,3,1,0,58,58,58,,,,,1,1,247.97325399983674,250.9764689002186,251.9703208003193,0.6845691995695233,,,sub015,001,2025_Jun_24_0910,HaririTask_Ver1,3.0.1,None,
Shape,stimuli/horizontal.bmp,stimuli/circle.bmp,stimuli/horizontal.bmp,stimuli/EmptyFrame.bmp,stimuli/RedFrame.bmp,2,Shape,None,3,1,0,59,59,59,,,,,2,1,251.99014819972217,254.99637340009212,255.98508690018207,0.7110419003292918,,,sub015,001,2025_Jun_24_0910,HaririTask_Ver1,3.0.1,None,
Shape,stimuli/horizontal.bmp,stimuli/horizontal.bmp,stimuli/vertical.bmp,stimuli/EmptyFrame.bmp,stimuli/RedFrame.bmp,1,Shape,None,3,1,0,60,60,60,,,,,1,1,256.0071601998061,259.00933749973774,260.00212169997394,0.646870999597013,,,sub015,001,2025_Jun_24_0910,HaririTask_Ver1,3.0.1,None,
Shape,stimuli/vertical.bmp,stimuli/vertical.bmp,stimuli/circle.bmp,stimuli/EmptyFrame.bmp,stimuli/RedFrame.bmp,1,Shape,None,3,1,0,61,61,61,,,,,1,1,260.02395329996943,263.02963219955564,264.0217755995691,0.5921213999390602,,,sub015,001,2025_Jun_24_0910,HaririTask_Ver1,3.0.1,None,
Shape,stimuli/circle.bmp,stimuli/horizontal.bmp,stimuli/circle.bmp,stimuli/EmptyFrame.bmp,stimuli/RedFrame.bmp,2,Shape,None,3,1,0,62,62,62,,,,,2,1,264.0481805000454,267.0488093001768,268.0341775994748,0.6205912996083498,,,sub015,001,2025_Jun_24_0910,HaririTask_Ver1,3.0.1,None,
Shape,stimuli/circle.bmp,stimuli/vertical.bmp,stimuli/circle.bmp,stimuli/EmptyFrame.bmp,stimuli/RedFrame.bmp,2,Shape,None,3,1,0,63,63,63,,,,,2,1,268.05916029959917,271.0604866994545,272.05907190032303,0.5188486995175481,,,sub015,001,2025_Jun_24_0910,HaririTask_Ver1,3.0.1,None,
Shape,stimuli/vertical.bmp,stimuli/vertical.bmp,stimuli/horizontal.bmp,stimuli/EmptyFrame.bmp,stimuli/RedFrame.bmp,1,Shape,None,3,1,0,64,64,64,,,,,1,1,272.0851585995406,275.08763340022415,276.0750533994287,0.86811270006001,,,sub015,001,2025_Jun_24_0910,HaririTask_Ver1,3.0.1,None,
Shape,stimuli/horizontal.bmp,stimuli/horizontal.bmp,stimuli/circle.bmp,stimuli/EmptyFrame.bmp,stimuli/RedFrame.bmp,1,Shape,None,3,1,0,65,65,65,,,,,1,1,276.09888289961964,279.10248159989715,280.0864627994597,0.6545192003250122,,,sub015,001,2025_Jun_24_0910,HaririTask_Ver1,3.0.1,None,
MatchFaces,stimuli/MatchFaces.bmp,stimuli/EmptyFace.bmp,stimuli/EmptyFace.bmp,stimuli/EmptyFrame.bmp,stimuli/EmptyFrame.bmp,Null,None,None,3,1,0,66,66,66,,,,,None,0,280.39823789987713,283.09771869983524,284.0911133000627,,,,sub015,001,2025_Jun_24_0910,HaririTask_Ver1,3.0.1,None,
Anger,stimuli/42M_AN_O.BMP,stimuli/42M_AN_O.BMP,stimuli/43M_AN_O.BMP,stimuli/EmptyFrame.bmp,stimuli/RedFrame.bmp,1,Anger,Male,3,1,0,67,67,67,,,,,1,1,284.17620059940964,287.11247580032796,288.10276030004025,0.6854146998375654,,,sub015,001,2025_Jun_24_0910,HaririTask_Ver1,3.0.1,None,
Anger,stimuli/07F_AN_O.BMP,stimuli/07F_AN_O.BMP,stimuli/14F_AN_O.BMP,stimuli/EmptyFrame.bmp,stimuli/RedFrame.bmp,1,Anger,Female,3,1,0,68,68,68,,,,,1,1,288.1296178000048,291.13938129972667,292.11561329942197,0.6845170995220542,,,sub015,001,2025_Jun_24_0910,HaririTask_Ver1,3.0.1,None,
Anger,stimuli/40M_AN_O.BMP,stimuli/41M_AN_O.BMP,stimuli/40M_AN_O.BMP,stimuli/EmptyFrame.bmp,stimuli/RedFrame.bmp,2,Anger,Male,3,1,0,69,69,69,,,,,2,1,292.15022949967533,295.15114710014313,296.12416789960116,0.808615599758923,,,sub015,001,2025_Jun_24_0910,HaririTask_Ver1,3.0.1,None,
Anger,stimuli/38M_AN_O.BMP,stimuli/39M_AN_O.BMP,stimuli/38M_AN_O.BMP,stimuli/EmptyFrame.bmp,stimuli/RedFrame.bmp,2,Anger,Male,3,1,0,70,70,70,,,,,2,1,296.1561751998961,299.1546708997339,300.13963949959725,1.13527060020715,,,sub015,001,2025_Jun_24_0910,HaririTask_Ver1,3.0.1,None,
Anger,stimuli/08F_AN_O.BMP,stimuli/08F_AN_O.BMP,stimuli/13F_AN_O.BMP,stimuli/EmptyFrame.bmp,stimuli/RedFrame.bmp,1,Anger,Female,3,1,0,71,71,71,,,,,1,1,300.16754100006074,303.1688000001013,304.1531285000965,0.8750841002911329,,,sub015,001,2025_Jun_24_0910,HaririTask_Ver1,3.0.1,None,
Anger,stimuli/36M_AN_O.BMP,stimuli/37M_AN_O.BMP,stimuli/36M_AN_O.BMP,stimuli/EmptyFrame.bmp,stimuli/RedFrame.bmp,2,Anger,Male,3,1,0,72,72,72,,,,,2,1,304.18956489954144,307.1930297994986,308.1766384001821,0.6829161001369357,,,sub015,001,2025_Jun_24_0910,HaririTask_Ver1,3.0.1,None,
Anger,stimuli/09F_AN_O.BMP,stimuli/12F_AN_O.BMP,stimuli/09F_AN_O.BMP,stimuli/EmptyFrame.bmp,stimuli/RedFrame.bmp,2,Anger,Female,3,1,0,73,73,73,,,,,2,1,308.2186664994806,311.20585189945996,312.1957157999277,0.8752840999513865,,,sub015,001,2025_Jun_24_0910,HaririTask_Ver1,3.0.1,None,
Anger,stimuli/34M_AN_O.BMP,stimuli/35M_AN_O.BMP,stimuli/34M_AN_O.BMP,stimuli/EmptyFrame.bmp,stimuli/RedFrame.bmp,2,Anger,Male,3,1,0,74,74,74,,,,,2,1,312.2209788998589,315.22727269958705,316.22610189951956,0.9527022000402212,,,sub015,001,2025_Jun_24_0910,HaririTask_Ver1,3.0.1,None,
Anger,stimuli/10F_AN_O.BMP,stimuli/10F_AN_O.BMP,stimuli/11F_AN_O.BMP,stimuli/EmptyFrame.bmp,stimuli/RedFrame.bmp,1,Anger,Female,3,1,0,75,75,75,,,,,1,1,316.2567414995283,319.25194450002164,320.2463633995503,0.9167006006464362,,,sub015,001,2025_Jun_24_0910,HaririTask_Ver1,3.0.1,None,
Anger,stimuli/12F_AN_O.BMP,stimuli/12F_AN_O.BMP,stimuli/13F_AN_O.BMP,stimuli/EmptyFrame.bmp,stimuli/RedFrame.bmp,1,Anger,Female,3,1,0,76,76,76,,,,,1,1,320.266759599559,323.27824199944735,324.26738320011646,0.8762563997879624,,,sub015,001,2025_Jun_24_0910,HaririTask_Ver1,3.0.1,None,
MatchFaces,stimuli/MatchFaces.bmp,stimuli/EmptyFace.bmp,stimuli/EmptyFace.bmp,stimuli/EmptyFrame.bmp,stimuli/EmptyFrame.bmp,Null,None,None,3,1,0,77,77,77,,,,,None,0,324.565700000152,327.2756367996335,328.27598090004176,,,,sub015,001,2025_Jun_24_0910,HaririTask_Ver1,3.0.1,None,
Happy,stimuli/20M_HA_O.BMP,stimuli/21M_HA_O.BMP,stimuli/20M_HA_O.BMP,stimuli/EmptyFrame.bmp,stimuli/RedFrame.bmp,2,Happy,Male,3,1,0,78,78,78,,,,,2,1,328.35307789966464,331.311628700234,332.29737280029804,0.6755440002307296,,,sub015,001,2025_Jun_24_0910,HaririTask_Ver1,3.0.1,None,
Happy,stimuli/01F_HA_O.bmp,stimuli/01F_HA_O.bmp,stimuli/02F_HA_O.bmp,stimuli/EmptyFrame.bmp,stimuli/RedFrame.bmp,1,Happy,Female,3,1,0,79,79,79,,,,,1,1,332.32718500029296,335.32620139978826,336.3169753998518,0.7248476995155215,,,sub015,001,2025_Jun_24_0910,HaririTask_Ver1,3.0.1,None,
Happy,stimuli/22M_HA_O.BMP,stimuli/23M_HA_O.BMP,stimuli/22M_HA_O.BMP,stimuli/EmptyFrame.bmp,stimuli/RedFrame.bmp,2,Happy,Male,3,1,0,80,80,80,,,,,2,1,336.34620600007474,339.36570679955184,340.33580949995667,0.7143534002825618,,,sub015,001,2025_Jun_24_0910,HaririTask_Ver1,3.0.1,None,
Happy,stimuli/24M_HA_O.BMP,stimuli/24M_HA_O.BMP,stimuli/25M_HA_O.BMP,stimuli/EmptyFrame.bmp,stimuli/RedFrame.bmp,1,Happy,Male,3,1,0,81,81,81,,,,,1,1,340.3629147997126,343.3662267001346,344.3585735997185,0.862573099322617,,,sub015,001,2025_Jun_24_0910,HaririTask_Ver1,3.0.1,None,
Happy,stimuli/03F_HA_O.bmp,stimuli/05F_HA_O.bmp,stimuli/03F_HA_O.bmp,stimuli/EmptyFrame.bmp,stimuli/RedFrame.bmp,2,Happy,Female,3,1,0,82,82,82,,,,,2,1,344.38849120028317,347.3913917997852,348.3692605001852,0.9792523002251983,,,sub015,001,2025_Jun_24_0910,HaririTask_Ver1,3.0.1,None,
Happy,stimuli/26M_HA_O.BMP,stimuli/26M_HA_O.BMP,stimuli/27M_HA_O.BMP,stimuli/EmptyFrame.bmp,stimuli/RedFrame.bmp,1,Happy,Male,3,1,0,83,83,83,,,,,1,1,348.40159930009395,351.4062620000914,352.3948325999081,0.8930981000885367,,,sub015,001,2025_Jun_24_0910,HaririTask_Ver1,3.0.1,None,
Happy,stimuli/06F_HA_O.bmp,stimuli/07F_HA_O.BMP,stimuli/06F_HA_O.bmp,stimuli/EmptyFrame.bmp,stimuli/RedFrame.bmp,2,Happy,Female,3,1,0,84,84,84,,,,,2,1,352.4332515001297,355.42113680019975,356.4126134002581,0.8802999006584287,,,sub015,001,2025_Jun_24_0910,HaririTask_Ver1,3.0.1,None,
Happy,stimuli/08F_HA_O.BMP,stimuli/08F_HA_O.BMP,stimuli/09F_HA_O.BMP,stimuli/EmptyFrame.bmp,stimuli/RedFrame.bmp,1,Happy,Female,3,1,0,85,85,85,,,,,1,1,356.4424487994984,359.43446139991283,360.4313564999029,0.9524443997070193,,,sub015,001,2025_Jun_24_0910,HaririTask_Ver1,3.0.1,None,
Happy,stimuli/28M_HA_O.BMP,stimuli/29M_HA_O.BMP,stimuli/28M_HA_O.BMP,stimuli/EmptyFrame.bmp,stimuli/RedFrame.bmp,2,Happy,Male,3,1,0,86,86,86,,,,,2,1,360.460626299493,363.46008819993585,364.4484962997958,0.8974522007629275,,,sub015,001,2025_Jun_24_0910,HaririTask_Ver1,3.0.1,None,
Happy,stimuli/10F_HA_O.BMP,stimuli/10F_HA_O.BMP,stimuli/06F_HA_O.bmp,stimuli/EmptyFrame.bmp,stimuli/RedFrame.bmp,1,Happy,Female,3,1,0,87,87,87,,,,,1,1,364.4719396000728,367.4747388996184,368.46575829945505,0.7696312991902232,,,sub015,001,2025_Jun_24_0910,HaririTask_Ver1,3.0.1,None,
MatchFaces,stimuli/MatchFaces.bmp,stimuli/EmptyFace.bmp,stimuli/EmptyFace.bmp,stimuli/EmptyFrame.bmp,stimuli/EmptyFrame.bmp,Null,None,None,3,1,0,88,88,88,,,,,None,0,368.65916659962386,371.4819275997579,372.47271799948066,,,,sub015,001,2025_Jun_24_0910,HaririTask_Ver1,3.0.1,None,
Neutral,stimuli/07F_NE_C.BMP,stimuli/07F_NE_C.BMP,stimuli/14F_NE_C.BMP,stimuli/EmptyFrame.bmp,stimuli/RedFrame.bmp,1,Neutral,Female,3,1,0,89,89,89,,,,,1,1,372.5540396999568,375.4987233001739,376.4916660999879,0.8869072003290057,,,sub015,001,2025_Jun_24_0910,HaririTask_Ver1,3.0.1,None,
Neutral,stimuli/25M_NE_C.BMP,stimuli/29M_NE_C.BMP,stimuli/25M_NE_C.BMP,stimuli/EmptyFrame.bmp,stimuli/RedFrame.bmp,2,Neutral,Male,3,1,0,90,90,90,,,,,2,1,376.5180925996974,379.5265632998198,380.5095712998882,0.7906619003042579,,,sub015,001,2025_Jun_24_0910,HaririTask_Ver1,3.0.1,None,
Neutral,stimuli/26M_NE_C.BMP,stimuli/26M_NE_C.BMP,stimuli/28M_NE_C.BMP,stimuli/EmptyFrame.bmp,stimuli/RedFrame.bmp,1,Neutral,Male,3,1,0,91,91,91,,,,,1,1,380.53483380004764,383.53147749975324,384.51834930013865,0.7748439004644752,,,sub015,001,2025_Jun_24_0910,HaririTask_Ver1,3.0.1,None,
Neutral,stimuli/08F_NE_C.BMP,stimuli/13F_NE_C.BMP,stimuli/08F_NE_C.BMP,stimuli/EmptyFrame.bmp,stimuli/RedFrame.bmp,2,Neutral,Female,3,1,0,92,92,92,,,,,2,1,384.54388319980353,387.55260749999434,388.53943550027907,0.7264913003891706,,,sub015,001,2025_Jun_24_0910,HaririTask_Ver1,3.0.1,None,
Neutral,stimuli/09F_NE_C.BMP,stimuli/09F_NE_C.BMP,stimuli/12F_NE_C.BMP,stimuli/EmptyFrame.bmp,stimuli/RedFrame.bmp,1,Neutral,Female,3,1,0,93,93,93,,,,,1,1,388.5655763996765,391.5743690999225,392.56033909972757,0.7787306001409888,,,sub015,001,2025_Jun_24_0910,HaririTask_Ver1,3.0.1,None,
Neutral,stimuli/27M_NE_C.BMP,stimuli/26M_NE_C.BMP,stimuli/27M_NE_C.BMP,stimuli/EmptyFrame.bmp,stimuli/RedFrame.bmp,2,Neutral,Male,3,1,0,94,94,94,,,,,2,1,392.5809786003083,395.5900715999305,396.5815741997212,0.8606704995036125,,,sub015,001,2025_Jun_24_0910,HaririTask_Ver1,3.0.1,None,
Neutral,stimuli/28M_NE_C.BMP,stimuli/28M_NE_C.BMP,stimuli/25M_NE_C.BMP,stimuli/EmptyFrame.bmp,stimuli/RedFrame.bmp,1,Neutral,Male,3,1,0,95,95,95,,,,,1,1,396.6073768995702,399.6107807997614,400.5964457998052,0.905570900067687,,,sub015,001,2025_Jun_24_0910,HaririTask_Ver1,3.0.1,None,
Neutral,stimuli/10F_NE_C.BMP,stimuli/11F_NE_C.BMP,stimuli/10F_NE_C.BMP,stimuli/EmptyFrame.bmp,stimuli/RedFrame.bmp,2,Neutral,Female,3,1,0,96,96,96,,,,,2,1,400.62357589975,403.63262249995023,404.6094619994983,0.6333896992728114,,,sub015,001,2025_Jun_24_0910,HaririTask_Ver1,3.0.1,None,
Neutral,stimuli/29M_NE_C.BMP,stimuli/29M_NE_C.BMP,stimuli/24M_NE_C.BMP,stimuli/EmptyFrame.bmp,stimuli/RedFrame.bmp,1,Neutral,Male,3,1,0,97,97,97,,,,,1,1,404.6314778001979,407.6311726998538,408.63312869984657,0.9009221997112036,,,sub015,001,2025_Jun_24_0910,HaririTask_Ver1,3.0.1,None,
Neutral,stimuli/11F_NE_C.BMP,stimuli/10F_NE_C.BMP,stimuli/11F_NE_C.BMP,stimuli/EmptyFrame.bmp,stimuli/RedFrame.bmp,2,Neutral,Female,3,1,0,98,98,98,,,,,2,1,408.654607700184,411.6656157998368,412.6498486995697,0.7847341001033783,,,sub015,001,2025_Jun_24_0910,HaririTask_Ver1,3.0.1,None,
MatchFaces,stimuli/MatchFaces.bmp,stimuli/EmptyFace.bmp,stimuli/EmptyFace.bmp,stimuli/EmptyFrame.bmp,stimuli/EmptyFrame.bmp,Null,None,None,3,1,0,99,99,99,,,,,None,0,412.8616076000035,415.65605929959565,416.6509133996442,,,,sub015,001,2025_Jun_24_0910,HaririTask_Ver1,3.0.1,None,
Fear,stimuli/23M_FE_O.BMP,stimuli/23M_FE_O.BMP,stimuli/24M_FE_O.BMP,stimuli/EmptyFrame.bmp,stimuli/RedFrame.bmp,1,Fear,Male,3,1,0,100,100,100,,,,,1,1,416.7208522995934,419.67439700011164,420.6686380999163,0.6093188999220729,,,sub015,001,2025_Jun_24_0910,HaririTask_Ver1,3.0.1,None,
Fear,stimuli/19F_FE_O.BMP,stimuli/18F_FE_O.BMP,stimuli/19F_FE_O.BMP,stimuli/EmptyFrame.bmp,stimuli/RedFrame.bmp,2,Fear,Female,3,1,0,101,101,101,,,,,2,1,420.69582500029355,423.69246950000525,424.69021799974144,0.6459389999508858,,,sub015,001,2025_Jun_24_0910,HaririTask_Ver1,3.0.1,None,
Fear,stimuli/17F_FE_O.BMP,stimuli/17F_FE_O.BMP,stimuli/16F_FE_O.BMP,stimuli/EmptyFrame.bmp,stimuli/RedFrame.bmp,1,Fear,Female,3,1,0,102,102,102,,,,,1,1,424.7254608999938,427.71692620031536,428.7092626998201,0.8023430993780494,,,sub015,001,2025_Jun_24_0910,HaririTask_Ver1,3.0.1,None,
Fear,stimuli/15F_FE_O.BMP,stimuli/18F_FE_O.BMP,stimuli/15F_FE_O.BMP,stimuli/EmptyFrame.bmp,stimuli/RedFrame.bmp,2,Fear,Female,3,1,0,103,103,103,,,,,2,1,428.7365796994418,431.74251279979944,432.72698479983956,0.6383512997999787,,,sub015,001,2025_Jun_24_0910,HaririTask_Ver1,3.0.1,None,
Fear,stimuli/21M_FE_O.BMP,stimuli/21M_FE_O.BMP,stimuli/22M_FE_O.BMP,stimuli/EmptyFrame.bmp,stimuli/RedFrame.bmp,1,Fear,Male,3,1,0,104,104,104,,,,,1,1,432.7533772001043,435.7567469999194,436.7483139997348,0.8240944994613528,,,sub015,001,2025_Jun_24_0910,HaririTask_Ver1,3.0.1,None,
Fear,stimuli/29M_FE_O.BMP,stimuli/30M_FE_O.BMP,stimuli/29M_FE_O.BMP,stimuli/EmptyFrame.bmp,stimuli/RedFrame.bmp,2,Fear,Male,3,1,0,105,105,105,,,,,2,1,436.77174749970436,439.77872209995985,440.7579830000177,1.0336180999875069,,,sub015,001,2025_Jun_24_0910,HaririTask_Ver1,3.0.1,None,
Fear,stimuli/31M_FE_O.BMP,stimuli/31M_FE_O.BMP,stimuli/38M_FE_O.BMP,stimuli/EmptyFrame.bmp,stimuli/RedFrame.bmp,1,Fear,Male,3,1,0,106,106,106,,,,,1,1,440.78999369964004,443.7930899998173,444.7776375999674,0.8709708005189896,,,sub015,001,2025_Jun_24_0910,HaririTask_Ver1,3.0.1,None,
Fear,stimuli/09F_FE_O.BMP,stimuli/07F_FE_O.BMP,stimuli/09F_FE_O.BMP,stimuli/EmptyFrame.bmp,stimuli/RedFrame.bmp,2,Fear,Female,3,1,0,107,107,107,,,,,2,1,444.80331549979746,447.812697599642,448.8039587000385,0.7893791999667883,,,sub015,001,2025_Jun_24_0910,HaririTask_Ver1,3.0.1,None,
Fear,stimuli/11F_FE_O.BMP,stimuli/12F_FE_O.BMP,stimuli/11F_FE_O.BMP,stimuli/EmptyFrame.bmp,stimuli/RedFrame.bmp,2,Fear,Female,3,1,0,108,108,108,,,,,2,1,448.82491439953446,451.8307584999129,452.8232722999528,1.2203220995143056,,,sub015,001,2025_Jun_24_0910,HaririTask_Ver1,3.0.1,None,
Fear,stimuli/34M_FE_O.BMP,stimuli/34M_FE_O.BMP,stimuli/33M_FE_O.BMP,stimuli/EmptyFrame.bmp,stimuli/RedFrame.bmp,1,Fear,Male,3,1,0,109,109,109,,,,,1,1,452.85243649967015,455.84866230003536,456.84620269946754,0.8623487995937467,,,sub015,001,2025_Jun_24_0910,HaririTask_Ver1,3.0.1,None,
,,,,,,,,,,,,,,,,,,,,,,,,,456.8715961994603,471.8519227998331,,,,,,,
