TrialType,Top,Left,Right,EmptyFrame,SelectedFrame,Correct,Emotion,Gender,TrialLength,FixationLength,n,GCFaceStartTime_mean,GCFaceStartTime_raw,GCFaceStartTime_std,GCPostFaceFixationEndTime_mean,GCPostFaceFixationEndTime_raw,GCPostFaceFixationEndTime_std,GCPostFaceFixationStartTime_mean,GCPostFaceFixationStartTime_raw,GCPostFaceFixationStartTime_std,key_resp_trial.corr_mean,key_resp_trial.corr_raw,key_resp_trial.corr_std,key_resp_trial.keys_raw,key_resp_trial.rt_mean,key_resp_trial.rt_raw,key_resp_trial.rt_std,order
MatchFaces,stimuli/MatchFaces.bmp,stimuli/EmptyFace.bmp,stimuli/EmptyFace.bmp,stimuli/EmptyFrame.bmp,stimuli/EmptyFrame.bmp,Null,None,None,3,1,1.0,15.197239875793457,15.197239875793457,0.0,19.03005027770996,19.03005027770996,0.0,18.04639434814453,18.04639434814453,0.0,0.0,0.0,0.0,,,,,0.0
Anger,stimuli/01F_AN_O.bmp,stimuli/19F_AN_O.BMP,stimuli/01F_AN_O.bmp,stimuli/EmptyFrame.bmp,stimuli/RedFrame.bmp,2,Anger,Female,3,1,1.0,19.20017433166504,19.20017433166504,0.0,23.040637969970703,23.040637969970703,0.0,22.066823959350586,22.066823959350586,0.0,1.0,1.0,0.0,'2',1.3971834182739258,1.3971834182739258,0.0,1.0
Anger,stimuli/02f_an_o.bmp,stimuli/18F_AN_O.BMP,stimuli/02f_an_o.bmp,stimuli/EmptyFrame.bmp,stimuli/RedFrame.bmp,2,Anger,Female,3,1,1.0,23.0650577545166,23.0650577545166,0.0,27.055662155151367,27.055662155151367,0.0,26.067401885986328,26.067401885986328,0.0,1.0,1.0,0.0,'2',1.0386067628860474,1.0386067628860474,0.0,2.0
Anger,stimuli/20M_AN_O.BMP,stimuli/34M_AN_O.BMP,stimuli/20M_AN_O.BMP,stimuli/EmptyFrame.bmp,stimuli/RedFrame.bmp,2,Anger,Male,3,1,1.0,27.079572677612305,27.079572677612305,0.0,31.070959091186523,31.070959091186523,0.0,30.104095458984375,30.104095458984375,0.0,1.0,1.0,0.0,'2',1.5059007406234741,1.5059007406234741,0.0,3.0
Anger,stimuli/03F_AN_O.bmp,stimuli/03F_AN_O.bmp,stimuli/17F_AN_O.BMP,stimuli/EmptyFrame.bmp,stimuli/RedFrame.bmp,1,Anger,Female,3,1,1.0,31.094871520996094,31.094871520996094,0.0,35.08236312866211,35.08236312866211,0.0,34.1043815612793,34.1043815612793,0.0,1.0,1.0,0.0,'1',1.2653237581253052,1.2653237581253052,0.0,4.0
Anger,stimuli/21M_AN_O.BMP,stimuli/21M_AN_O.BMP,stimuli/33M_AN_O.BMP,stimuli/EmptyFrame.bmp,stimuli/RedFrame.bmp,1,Anger,Male,3,1,1.0,35.10783767700195,35.10783767700195,0.0,39.096946716308594,39.096946716308594,0.0,38.111873626708984,38.111873626708984,0.0,1.0,1.0,0.0,'1',1.1602544784545898,1.1602544784545898,0.0,5.0
Anger,stimuli/22M_AN_O.BMP,stimuli/32M_AN_O.BMP,stimuli/22M_AN_O.BMP,stimuli/EmptyFrame.bmp,stimuli/RedFrame.bmp,2,Anger,Male,3,1,1.0,39.12290573120117,39.12290573120117,0.0,43.11924743652344,43.11924743652344,0.0,42.126869201660156,42.126869201660156,0.0,1.0,1.0,0.0,'2',1.4190082550048828,1.4190082550048828,0.0,6.0
Anger,stimuli/23M_AN_O.BMP,stimuli/23M_AN_O.BMP,stimuli/31M_AN_O.BMP,stimuli/EmptyFrame.bmp,stimuli/RedFrame.bmp,1,Anger,Male,3,1,1.0,43.149715423583984,43.149715423583984,0.0,47.136436462402344,47.136436462402344,0.0,46.15203094482422,46.15203094482422,0.0,1.0,1.0,0.0,'1',1.0931305885314941,1.0931305885314941,0.0,7.0
Anger,stimuli/05F_AN_O.bmp,stimuli/05F_AN_O.bmp,stimuli/16F_AN_O.BMP,stimuli/EmptyFrame.bmp,stimuli/RedFrame.bmp,1,Anger,Female,3,1,1.0,47.164039611816406,47.164039611816406,0.0,51.1579704284668,51.1579704284668,0.0,50.16124725341797,50.16124725341797,0.0,1.0,1.0,0.0,'1',1.1348397731781006,1.1348397731781006,0.0,8.0
Anger,stimuli/06F_AN_O.bmp,stimuli/15F_AN_O.BMP,stimuli/06F_AN_O.bmp,stimuli/EmptyFrame.bmp,stimuli/RedFrame.bmp,2,Anger,Female,3,1,1.0,51.18807601928711,51.18807601928711,0.0,55.17758560180664,55.17758560180664,0.0,54.182899475097656,54.182899475097656,0.0,1.0,1.0,0.0,'2',1.0711987018585205,1.0711987018585205,0.0,9.0
Anger,stimuli/24M_AN_O.BMP,stimuli/24M_AN_O.BMP,stimuli/30M_AN_O.BMP,stimuli/EmptyFrame.bmp,stimuli/RedFrame.bmp,1,Anger,Male,3,1,1.0,55.2098274230957,55.2098274230957,0.0,59.18812942504883,59.18812942504883,0.0,58.20213317871094,58.20213317871094,0.0,1.0,1.0,0.0,'1',1.0987168550491333,1.0987168550491333,0.0,10.0
MatchShape,stimuli/MatchShapes.bmp,stimuli/EmptyFace.bmp,stimuli/EmptyFace.bmp,stimuli/EmptyFrame.bmp,stimuli/EmptyFrame.bmp,Null,None,None,3,1,1.0,59.2194938659668,59.2194938659668,0.0,63.19867706298828,63.19867706298828,0.0,62.21148681640625,62.21148681640625,0.0,0.0,0.0,0.0,,,,,11.0
Shape,stimuli/horizontal.bmp,stimuli/horizontal.bmp,stimuli/circle.bmp,stimuli/EmptyFrame.bmp,stimuli/RedFrame.bmp,1,Shape,None,3,1,1.0,63.23681640625,63.23681640625,0.0,67.20846557617188,67.20846557617188,0.0,66.21916961669922,66.21916961669922,0.0,1.0,1.0,0.0,'1',1.0664235353469849,1.0664235353469849,0.0,12.0
Shape,stimuli/vertical.bmp,stimuli/horizontal.bmp,stimuli/vertical.bmp,stimuli/EmptyFrame.bmp,stimuli/RedFrame.bmp,2,Shape,None,3,1,1.0,67.23529052734375,67.23529052734375,0.0,71.23774719238281,71.23774719238281,0.0,70.2539291381836,70.2539291381836,0.0,1.0,1.0,0.0,'2',1.280539870262146,1.280539870262146,0.0,13.0
Shape,stimuli/horizontal.bmp,stimuli/horizontal.bmp,stimuli/vertical.bmp,stimuli/EmptyFrame.bmp,stimuli/RedFrame.bmp,1,Shape,None,3,1,1.0,71.26447296142578,71.26447296142578,0.0,75.26058197021484,75.26058197021484,0.0,74.26992797851562,74.26992797851562,0.0,1.0,1.0,0.0,'1',1.0022295713424683,1.0022295713424683,0.0,14.0
Shape,stimuli/horizontal.bmp,stimuli/circle.bmp,stimuli/horizontal.bmp,stimuli/EmptyFrame.bmp,stimuli/RedFrame.bmp,2,Shape,None,3,1,1.0,75.28276062011719,75.28276062011719,0.0,79.28231811523438,79.28231811523438,0.0,78.28697204589844,78.28697204589844,0.0,1.0,1.0,0.0,'2',1.146994948387146,1.146994948387146,0.0,15.0
Shape,stimuli/circle.bmp,stimuli/circle.bmp,stimuli/vertical.bmp,stimuli/EmptyFrame.bmp,stimuli/RedFrame.bmp,1,Shape,None,3,1,1.0,79.30948638916016,79.30948638916016,0.0,83.29676818847656,83.29676818847656,0.0,82.30181884765625,82.30181884765625,0.0,1.0,1.0,0.0,'1',1.8515841960906982,1.8515841960906982,0.0,16.0
Shape,stimuli/circle.bmp,stimuli/circle.bmp,stimuli/horizontal.bmp,stimuli/EmptyFrame.bmp,stimuli/RedFrame.bmp,1,Shape,None,3,1,1.0,83.32341766357422,83.32341766357422,0.0,87.31206512451172,87.31206512451172,0.0,86.32015228271484,86.32015228271484,0.0,1.0,1.0,0.0,'1',0.8122698068618774,0.8122698068618774,0.0,17.0
Shape,stimuli/vertical.bmp,stimuli/circle.bmp,stimuli/vertical.bmp,stimuli/EmptyFrame.bmp,stimuli/RedFrame.bmp,2,Shape,None,3,1,1.0,87.33439636230469,87.33439636230469,0.0,91.33182525634766,91.33182525634766,0.0,90.34071350097656,90.34071350097656,0.0,1.0,1.0,0.0,'2',1.108788251876831,1.108788251876831,0.0,18.0
Shape,stimuli/circle.bmp,stimuli/vertical.bmp,stimuli/circle.bmp,stimuli/EmptyFrame.bmp,stimuli/RedFrame.bmp,2,Shape,None,3,1,1.0,91.35411834716797,91.35411834716797,0.0,95.35253143310547,95.35253143310547,0.0,94.35954284667969,94.35954284667969,0.0,1.0,1.0,0.0,'2',0.981708288192749,0.981708288192749,0.0,19.0
Shape,stimuli/vertical.bmp,stimuli/horizontal.bmp,stimuli/vertical.bmp,stimuli/EmptyFrame.bmp,stimuli/RedFrame.bmp,2,Shape,None,3,1,1.0,95.3772201538086,95.3772201538086,0.0,99.36788177490234,99.36788177490234,0.0,98.39322662353516,98.39322662353516,0.0,1.0,1.0,0.0,'2',1.14715576171875,1.14715576171875,0.0,20.0
Shape,stimuli/vertical.bmp,stimuli/vertical.bmp,stimuli/circle.bmp,stimuli/EmptyFrame.bmp,stimuli/RedFrame.bmp,1,Shape,None,3,1,1.0,99.39035034179688,99.39035034179688,0.0,103.38482666015625,103.38482666015625,0.0,102.39552307128906,102.39552307128906,0.0,1.0,1.0,0.0,'1',0.8548334240913391,0.8548334240913391,0.0,21.0
MatchFaces,stimuli/MatchFaces.bmp,stimuli/EmptyFace.bmp,stimuli/EmptyFace.bmp,stimuli/EmptyFrame.bmp,stimuli/EmptyFrame.bmp,Null,None,None,3,1,1.0,103.75173950195312,103.75173950195312,0.0,107.39102935791016,107.39102935791016,0.0,106.40072631835938,106.40072631835938,0.0,0.0,0.0,0.0,,,,,22.0
Neutral,stimuli/20M_NE_C.BMP,stimuli/21M_NE_C.BMP,stimuli/20M_NE_C.BMP,stimuli/EmptyFrame.bmp,stimuli/RedFrame.bmp,2,Neutral,Male,3,1,1.0,107.5497055053711,107.5497055053711,0.0,111.40850067138672,111.40850067138672,0.0,110.42327880859375,110.42327880859375,0.0,1.0,1.0,0.0,'2',2.7239508628845215,2.7239508628845215,0.0,23.0
Neutral,stimuli/01F_NE_C.bmp,stimuli/01F_NE_C.bmp,stimuli/02F_NE_C.bmp,stimuli/EmptyFrame.bmp,stimuli/RedFrame.bmp,1,Neutral,Female,3,1,1.0,111.43345642089844,111.43345642089844,0.0,115.4190673828125,115.4190673828125,0.0,114.43346405029297,114.43346405029297,0.0,1.0,1.0,0.0,'1',1.0273897647857666,1.0273897647857666,0.0,24.0
Neutral,stimuli/22M_NE_C.BMP,stimuli/23M_NE_C.BMP,stimuli/22M_NE_C.BMP,stimuli/EmptyFrame.bmp,stimuli/RedFrame.bmp,2,Neutral,Male,3,1,1.0,115.44847869873047,115.44847869873047,0.0,119.42906188964844,119.42906188964844,0.0,118.4459457397461,118.4459457397461,0.0,1.0,1.0,0.0,'2',1.2836745977401733,1.2836745977401733,0.0,25.0
Neutral,stimuli/24M_NE_C.BMP,stimuli/24M_NE_C.BMP,stimuli/25M_NE_C.BMP,stimuli/EmptyFrame.bmp,stimuli/RedFrame.bmp,1,Neutral,Male,3,1,1.0,119.45796203613281,119.45796203613281,0.0,123.4424057006836,123.4424057006836,0.0,122.46204376220703,122.46204376220703,0.0,1.0,1.0,0.0,'1',1.1343927383422852,1.1343927383422852,0.0,26.0
Neutral,stimuli/03F_NE_C.bmp,stimuli/05F_NE_C.bmp,stimuli/03F_NE_C.bmp,stimuli/EmptyFrame.bmp,stimuli/RedFrame.bmp,2,Neutral,Female,3,1,1.0,123.47003173828125,123.47003173828125,0.0,127.46178436279297,127.46178436279297,0.0,126.46923065185547,126.46923065185547,0.0,1.0,1.0,0.0,'2',1.1427544355392456,1.1427544355392456,0.0,27.0
Neutral,stimuli/26M_NE_C.BMP,stimuli/26M_NE_C.BMP,stimuli/27M_NE_C.BMP,stimuli/EmptyFrame.bmp,stimuli/RedFrame.bmp,1,Neutral,Male,3,1,1.0,127.49126434326172,127.49126434326172,0.0,131.47756958007812,131.47756958007812,0.0,130.48583984375,130.48583984375,0.0,1.0,1.0,0.0,'1',0.9938228726387024,0.9938228726387024,0.0,28.0
Neutral,stimuli/06F_NE_C.bmp,stimuli/07F_NE_C.BMP,stimuli/06F_NE_C.bmp,stimuli/EmptyFrame.bmp,stimuli/RedFrame.bmp,2,Neutral,Female,3,1,1.0,131.50584411621094,131.50584411621094,0.0,135.49234008789062,135.49234008789062,0.0,134.50599670410156,134.50599670410156,0.0,1.0,1.0,0.0,'2',1.0069262981414795,1.0069262981414795,0.0,29.0
Neutral,stimuli/08F_NE_C.BMP,stimuli/08F_NE_C.BMP,stimuli/09F_NE_C.BMP,stimuli/EmptyFrame.bmp,stimuli/RedFrame.bmp,1,Neutral,Female,3,1,1.0,135.51577758789062,135.51577758789062,0.0,139.51097106933594,139.51097106933594,0.0,138.5154571533203,138.5154571533203,0.0,1.0,1.0,0.0,'1',1.0089709758758545,1.0089709758758545,0.0,30.0
Neutral,stimuli/28M_NE_C.BMP,stimuli/29M_NE_C.BMP,stimuli/28M_NE_C.BMP,stimuli/EmptyFrame.bmp,stimuli/RedFrame.bmp,2,Neutral,Male,3,1,1.0,139.53660583496094,139.53660583496094,0.0,143.52305603027344,143.52305603027344,0.0,142.53785705566406,142.53785705566406,0.0,1.0,1.0,0.0,'2',1.1025969982147217,1.1025969982147217,0.0,31.0
Neutral,stimuli/10F_NE_C.BMP,stimuli/10F_NE_C.BMP,stimuli/06F_NE_C.bmp,stimuli/EmptyFrame.bmp,stimuli/RedFrame.bmp,1,Neutral,Female,3,1,1.0,143.54824829101562,143.54824829101562,0.0,147.5347900390625,147.5347900390625,0.0,146.5523223876953,146.5523223876953,0.0,1.0,1.0,0.0,'1',0.7748714089393616,0.7748714089393616,0.0,32.0
MatchFaces,stimuli/MatchFaces.bmp,stimuli/EmptyFace.bmp,stimuli/EmptyFace.bmp,stimuli/EmptyFrame.bmp,stimuli/EmptyFrame.bmp,Null,None,None,3,1,1.0,147.88650512695312,147.88650512695312,0.0,151.5357208251953,151.5357208251953,0.0,150.5593719482422,150.5593719482422,0.0,0.0,0.0,0.0,,,,,33.0
Fear,stimuli/07F_FE_O.BMP,stimuli/07F_FE_O.BMP,stimuli/14F_FE_O.BMP,stimuli/EmptyFrame.bmp,stimuli/RedFrame.bmp,1,Fear,Female,3,1,1.0,151.6397247314453,151.6397247314453,0.0,155.5487518310547,155.5487518310547,0.0,154.5614776611328,154.5614776611328,0.0,1.0,1.0,0.0,'1',1.2043615579605103,1.2043615579605103,0.0,34.0
Fear,stimuli/25M_FE_O.BMP,stimuli/29M_FE_O.BMP,stimuli/25M_FE_O.BMP,stimuli/EmptyFrame.bmp,stimuli/RedFrame.bmp,2,Fear,Male,3,1,1.0,155.5753936767578,155.5753936767578,0.0,159.56024169921875,159.56024169921875,0.0,158.57168579101562,158.57168579101562,0.0,1.0,1.0,0.0,'2',1.2172949314117432,1.2172949314117432,0.0,35.0
Fear,stimuli/26M_FE_O.BMP,stimuli/26M_FE_O.BMP,stimuli/28M_FE_O.BMP,stimuli/EmptyFrame.bmp,stimuli/RedFrame.bmp,1,Fear,Male,3,1,1.0,159.5843505859375,159.5843505859375,0.0,163.58946228027344,163.58946228027344,0.0,162.58705139160156,162.58705139160156,0.0,1.0,1.0,0.0,'1',1.0092006921768188,1.0092006921768188,0.0,36.0
Fear,stimuli/08F_FE_O.BMP,stimuli/13F_FE_O.BMP,stimuli/08F_FE_O.BMP,stimuli/EmptyFrame.bmp,stimuli/RedFrame.bmp,2,Fear,Female,3,1,1.0,163.63217163085938,163.63217163085938,0.0,167.6163330078125,167.6163330078125,0.0,166.61529541015625,166.61529541015625,0.0,1.0,1.0,0.0,'2',1.0234663486480713,1.0234663486480713,0.0,37.0
Fear,stimuli/09F_FE_O.BMP,stimuli/09F_FE_O.BMP,stimuli/12F_FE_O.BMP,stimuli/EmptyFrame.bmp,stimuli/RedFrame.bmp,1,Fear,Female,3,1,1.0,167.64572143554688,167.64572143554688,0.0,171.62936401367188,171.62936401367188,0.0,170.6404266357422,170.6404266357422,0.0,1.0,1.0,0.0,'1',1.1017234325408936,1.1017234325408936,0.0,38.0
Fear,stimuli/27M_FE_O.BMP,stimuli/26M_FE_O.BMP,stimuli/27M_FE_O.BMP,stimuli/EmptyFrame.bmp,stimuli/RedFrame.bmp,2,Fear,Male,3,1,1.0,171.65237426757812,171.65237426757812,0.0,175.64125061035156,175.64125061035156,0.0,174.66537475585938,174.66537475585938,0.0,1.0,1.0,0.0,'2',1.1934536695480347,1.1934536695480347,0.0,39.0
Fear,stimuli/28M_FE_O.BMP,stimuli/28M_FE_O.BMP,stimuli/25M_FE_O.BMP,stimuli/EmptyFrame.bmp,stimuli/RedFrame.bmp,1,Fear,Male,3,1,1.0,175.66461181640625,175.66461181640625,0.0,179.656982421875,179.656982421875,0.0,178.6643524169922,178.6643524169922,0.0,1.0,1.0,0.0,'1',1.4647839069366455,1.4647839069366455,0.0,40.0
Fear,stimuli/10F_FE_O.BMP,stimuli/11F_FE_O.BMP,stimuli/10F_FE_O.BMP,stimuli/EmptyFrame.bmp,stimuli/RedFrame.bmp,2,Fear,Female,3,1,1.0,179.6832275390625,179.6832275390625,0.0,183.67352294921875,183.67352294921875,0.0,182.68075561523438,182.68075561523438,0.0,1.0,1.0,0.0,'2',0.9807782173156738,0.9807782173156738,0.0,41.0
Fear,stimuli/29M_FE_O.BMP,stimuli/29M_FE_O.BMP,stimuli/24M_FE_O.BMP,stimuli/EmptyFrame.bmp,stimuli/RedFrame.bmp,1,Fear,Male,3,1,1.0,183.69927978515625,183.69927978515625,0.0,187.688720703125,187.688720703125,0.0,186.6970977783203,186.6970977783203,0.0,1.0,1.0,0.0,'1',1.1297715902328491,1.1297715902328491,0.0,42.0
Fear,stimuli/11F_FE_O.BMP,stimuli/10F_FE_O.BMP,stimuli/11F_FE_O.BMP,stimuli/EmptyFrame.bmp,stimuli/RedFrame.bmp,2,Fear,Female,3,1,1.0,187.71258544921875,187.71258544921875,0.0,191.7024383544922,191.7024383544922,0.0,190.7183074951172,190.7183074951172,0.0,1.0,1.0,0.0,'2',0.967958927154541,0.967958927154541,0.0,43.0
MatchFaces,stimuli/MatchFaces.bmp,stimuli/EmptyFace.bmp,stimuli/EmptyFace.bmp,stimuli/EmptyFrame.bmp,stimuli/EmptyFrame.bmp,Null,None,None,3,1,1.0,191.94224548339844,191.94224548339844,0.0,195.70668029785156,195.70668029785156,0.0,194.71829223632812,194.71829223632812,0.0,0.0,0.0,0.0,,,,,44.0
Happy,stimuli/19F_HA_O.BMP,stimuli/19F_HA_O.BMP,stimuli/18F_HA_O.BMP,stimuli/EmptyFrame.bmp,stimuli/RedFrame.bmp,1,Happy,Female,3,1,1.0,195.8055877685547,195.8055877685547,0.0,199.7181854248047,199.7181854248047,0.0,198.74473571777344,198.74473571777344,0.0,1.0,1.0,0.0,'1',0.993193507194519,0.993193507194519,0.0,45.0
Happy,stimuli/17F_HA_O.BMP,stimuli/16F_HA_O.BMP,stimuli/17F_HA_O.BMP,stimuli/EmptyFrame.bmp,stimuli/RedFrame.bmp,2,Happy,Female,3,1,1.0,199.7447509765625,199.7447509765625,0.0,203.73606872558594,203.73606872558594,0.0,202.74844360351562,202.74844360351562,0.0,1.0,1.0,0.0,'2',0.768540620803833,0.768540620803833,0.0,46.0
Happy,stimuli/43M_HA_O.BMP,stimuli/42M_HA_O.BMP,stimuli/43M_HA_O.BMP,stimuli/EmptyFrame.bmp,stimuli/RedFrame.bmp,2,Happy,Male,3,1,1.0,203.7650604248047,203.7650604248047,0.0,207.75062561035156,207.75062561035156,0.0,206.767578125,206.767578125,0.0,1.0,1.0,0.0,'2',0.9231554269790649,0.9231554269790649,0.0,47.0
Happy,stimuli/41M_HA_O.BMP,stimuli/41M_HA_O.BMP,stimuli/40M_HA_O.BMP,stimuli/EmptyFrame.bmp,stimuli/RedFrame.bmp,1,Happy,Male,3,1,1.0,207.7809295654297,207.7809295654297,0.0,211.7696533203125,211.7696533203125,0.0,210.7815399169922,210.7815399169922,0.0,1.0,1.0,0.0,'1',1.1184077262878418,1.1184077262878418,0.0,48.0
Happy,stimuli/15F_HA_O.BMP,stimuli/15F_HA_O.BMP,stimuli/14F_HA_O.BMP,stimuli/EmptyFrame.bmp,stimuli/RedFrame.bmp,1,Happy,Female,3,1,1.0,211.79689025878906,211.79689025878906,0.0,215.7880401611328,215.7880401611328,0.0,214.7965545654297,214.7965545654297,0.0,1.0,1.0,0.0,'1',1.0486905574798584,1.0486905574798584,0.0,49.0
Happy,stimuli/13F_HA_O.BMP,stimuli/13F_HA_O.BMP,stimuli/12F_HA_O.BMP,stimuli/EmptyFrame.bmp,stimuli/RedFrame.bmp,1,Happy,Female,3,1,1.0,215.8165283203125,215.8165283203125,0.0,219.8083038330078,219.8083038330078,0.0,218.81289672851562,218.81289672851562,0.0,1.0,1.0,0.0,'1',1.1301591396331787,1.1301591396331787,0.0,50.0
Happy,stimuli/39M_HA_O.BMP,stimuli/38M_HA_O.BMP,stimuli/39M_HA_O.BMP,stimuli/EmptyFrame.bmp,stimuli/RedFrame.bmp,2,Happy,Male,3,1,1.0,219.83819580078125,219.83819580078125,0.0,223.82054138183594,223.82054138183594,0.0,222.84161376953125,222.84161376953125,0.0,1.0,1.0,0.0,'2',1.1040903329849243,1.1040903329849243,0.0,51.0
Happy,stimuli/37M_HA_O.BMP,stimuli/37M_HA_O.BMP,stimuli/36M_HA_O.BMP,stimuli/EmptyFrame.bmp,stimuli/RedFrame.bmp,1,Happy,Male,3,1,1.0,223.84715270996094,223.84715270996094,0.0,227.8356170654297,227.8356170654297,0.0,226.85440063476562,226.85440063476562,0.0,1.0,1.0,0.0,'1',1.0998426675796509,1.0998426675796509,0.0,52.0
Happy,stimuli/35M_HA_O.BMP,stimuli/34M_HA_O.BMP,stimuli/35M_HA_O.BMP,stimuli/EmptyFrame.bmp,stimuli/RedFrame.bmp,2,Happy,Male,3,1,1.0,227.8632049560547,227.8632049560547,0.0,231.84852600097656,231.84852600097656,0.0,230.86447143554688,230.86447143554688,0.0,1.0,1.0,0.0,'2',0.9197489023208618,0.9197489023208618,0.0,53.0
Happy,stimuli/11F_HA_O.BMP,stimuli/10F_HA_O.BMP,stimuli/11F_HA_O.BMP,stimuli/EmptyFrame.bmp,stimuli/RedFrame.bmp,2,Happy,Female,3,1,1.0,231.87916564941406,231.87916564941406,0.0,235.8599090576172,235.8599090576172,0.0,234.88104248046875,234.88104248046875,0.0,1.0,1.0,0.0,'2',1.0003931522369385,1.0003931522369385,0.0,54.0
Match Shape,stimuli/MatchShapes.bmp,stimuli/EmptyFace.bmp,stimuli/EmptyFace.bmp,stimuli/EmptyFrame.bmp,stimuli/EmptyFrame.bmp,Null,None,None,3,1,1.0,235.88314819335938,235.88314819335938,0.0,239.86305236816406,239.86305236816406,0.0,238.8749237060547,238.8749237060547,0.0,0.0,0.0,0.0,,,,,55.0
Shape,stimuli/circle.bmp,stimuli/vertical.bmp,stimuli/circle.bmp,stimuli/EmptyFrame.bmp,stimuli/RedFrame.bmp,2,Shape,None,3,1,1.0,239.8970947265625,239.8970947265625,0.0,243.87681579589844,243.87681579589844,0.0,242.89019775390625,242.89019775390625,0.0,1.0,1.0,0.0,'2',1.0896685123443604,1.0896685123443604,0.0,56.0
Shape,stimuli/horizontal.bmp,stimuli/circle.bmp,stimuli/horizontal.bmp,stimuli/EmptyFrame.bmp,stimuli/RedFrame.bmp,2,Shape,None,3,1,1.0,243.89967346191406,243.89967346191406,0.0,247.88929748535156,247.88929748535156,0.0,246.89393615722656,246.89393615722656,0.0,1.0,1.0,0.0,'2',0.6649627089500427,0.6649627089500427,0.0,57.0
Shape,stimuli/vertical.bmp,stimuli/vertical.bmp,stimuli/horizontal.bmp,stimuli/EmptyFrame.bmp,stimuli/RedFrame.bmp,1,Shape,None,3,1,1.0,247.91140747070312,247.91140747070312,0.0,251.90560913085938,251.90560913085938,0.0,250.92002868652344,250.92002868652344,0.0,0.0,0.0,0.0,'2',0.8090019822120667,0.8090019822120667,0.0,58.0
Shape,stimuli/horizontal.bmp,stimuli/circle.bmp,stimuli/horizontal.bmp,stimuli/EmptyFrame.bmp,stimuli/RedFrame.bmp,2,Shape,None,3,1,1.0,251.92552185058594,251.92552185058594,0.0,255.92344665527344,255.92344665527344,0.0,254.93128967285156,254.93128967285156,0.0,1.0,1.0,0.0,'2',0.7918443083763123,0.7918443083763123,0.0,59.0
Shape,stimuli/horizontal.bmp,stimuli/horizontal.bmp,stimuli/vertical.bmp,stimuli/EmptyFrame.bmp,stimuli/RedFrame.bmp,1,Shape,None,3,1,1.0,255.947265625,255.947265625,0.0,259.9369812011719,259.9369812011719,0.0,258.9510192871094,258.9510192871094,0.0,1.0,1.0,0.0,'1',0.9854297041893005,0.9854297041893005,0.0,60.0
Shape,stimuli/vertical.bmp,stimuli/vertical.bmp,stimuli/circle.bmp,stimuli/EmptyFrame.bmp,stimuli/RedFrame.bmp,1,Shape,None,3,1,1.0,259.9618835449219,259.9618835449219,0.0,263.9539489746094,263.9539489746094,0.0,262.96014404296875,262.96014404296875,0.0,1.0,1.0,0.0,'1',1.0171610116958618,1.0171610116958618,0.0,61.0
Shape,stimuli/circle.bmp,stimuli/horizontal.bmp,stimuli/circle.bmp,stimuli/EmptyFrame.bmp,stimuli/RedFrame.bmp,2,Shape,None,3,1,1.0,263.97601318359375,263.97601318359375,0.0,267.96868896484375,267.96868896484375,0.0,266.9853820800781,266.9853820800781,0.0,1.0,1.0,0.0,'2',1.132145643234253,1.132145643234253,0.0,62.0
Shape,stimuli/circle.bmp,stimuli/vertical.bmp,stimuli/circle.bmp,stimuli/EmptyFrame.bmp,stimuli/RedFrame.bmp,2,Shape,None,3,1,1.0,267.9902648925781,267.9902648925781,0.0,271.9884948730469,271.9884948730469,0.0,270.99542236328125,270.99542236328125,0.0,1.0,1.0,0.0,'2',1.2346543073654175,1.2346543073654175,0.0,63.0
Shape,stimuli/vertical.bmp,stimuli/vertical.bmp,stimuli/horizontal.bmp,stimuli/EmptyFrame.bmp,stimuli/RedFrame.bmp,1,Shape,None,3,1,1.0,272.00750732421875,272.00750732421875,0.0,276.0056457519531,276.0056457519531,0.0,275.0126953125,275.0126953125,0.0,1.0,1.0,0.0,'1',1.7179867029190063,1.7179867029190063,0.0,64.0
Shape,stimuli/horizontal.bmp,stimuli/horizontal.bmp,stimuli/circle.bmp,stimuli/EmptyFrame.bmp,stimuli/RedFrame.bmp,1,Shape,None,3,1,1.0,276.02593994140625,276.02593994140625,0.0,280.017822265625,280.017822265625,0.0,279.0421447753906,279.0421447753906,0.0,1.0,1.0,0.0,'1',1.0703694820404053,1.0703694820404053,0.0,65.0
MatchFaces,stimuli/MatchFaces.bmp,stimuli/EmptyFace.bmp,stimuli/EmptyFace.bmp,stimuli/EmptyFrame.bmp,stimuli/EmptyFrame.bmp,Null,None,None,3,1,1.0,280.2767333984375,280.2767333984375,0.0,284.02557373046875,284.02557373046875,0.0,283.031005859375,283.031005859375,0.0,0.0,0.0,0.0,,,,,66.0
Anger,stimuli/42M_AN_O.BMP,stimuli/42M_AN_O.BMP,stimuli/43M_AN_O.BMP,stimuli/EmptyFrame.bmp,stimuli/RedFrame.bmp,1,Anger,Male,3,1,1.0,284.0934753417969,284.0934753417969,0.0,288.0435791015625,288.0435791015625,0.0,287.05419921875,287.05419921875,0.0,1.0,1.0,0.0,'1',1.0025413036346436,1.0025413036346436,0.0,67.0
Anger,stimuli/07F_AN_O.BMP,stimuli/07F_AN_O.BMP,stimuli/14F_AN_O.BMP,stimuli/EmptyFrame.bmp,stimuli/RedFrame.bmp,1,Anger,Female,3,1,1.0,288.0711669921875,288.0711669921875,0.0,292.052490234375,292.052490234375,0.0,291.0685119628906,291.0685119628906,0.0,1.0,1.0,0.0,'1',1.1446075439453125,1.1446075439453125,0.0,68.0
Anger,stimuli/40M_AN_O.BMP,stimuli/41M_AN_O.BMP,stimuli/40M_AN_O.BMP,stimuli/EmptyFrame.bmp,stimuli/RedFrame.bmp,2,Anger,Male,3,1,1.0,292.0823974609375,292.0823974609375,0.0,296.06439208984375,296.06439208984375,0.0,295.0813903808594,295.0813903808594,0.0,1.0,1.0,0.0,'2',0.9796847105026245,0.9796847105026245,0.0,69.0
Anger,stimuli/38M_AN_O.BMP,stimuli/39M_AN_O.BMP,stimuli/38M_AN_O.BMP,stimuli/EmptyFrame.bmp,stimuli/RedFrame.bmp,2,Anger,Male,3,1,1.0,296.0896301269531,296.0896301269531,0.0,300.0760803222656,300.0760803222656,0.0,299.09637451171875,299.09637451171875,0.0,1.0,1.0,0.0,'2',1.7916278839111328,1.7916278839111328,0.0,70.0
Anger,stimuli/08F_AN_O.BMP,stimuli/08F_AN_O.BMP,stimuli/13F_AN_O.BMP,stimuli/EmptyFrame.bmp,stimuli/RedFrame.bmp,1,Anger,Female,3,1,1.0,300.10455322265625,300.10455322265625,0.0,304.0961608886719,304.0961608886719,0.0,303.1087341308594,303.1087341308594,0.0,1.0,1.0,0.0,'1',1.2606182098388672,1.2606182098388672,0.0,71.0
Anger,stimuli/36M_AN_O.BMP,stimuli/37M_AN_O.BMP,stimuli/36M_AN_O.BMP,stimuli/EmptyFrame.bmp,stimuli/RedFrame.bmp,2,Anger,Male,3,1,1.0,304.1206359863281,304.1206359863281,0.0,308.1204833984375,308.1204833984375,0.0,307.1193542480469,307.1193542480469,0.0,1.0,1.0,0.0,'2',1.2927299737930298,1.2927299737930298,0.0,72.0
Anger,stimuli/09F_AN_O.BMP,stimuli/12F_AN_O.BMP,stimuli/09F_AN_O.BMP,stimuli/EmptyFrame.bmp,stimuli/RedFrame.bmp,2,Anger,Female,3,1,1.0,308.1509094238281,308.1509094238281,0.0,312.1381530761719,312.1381530761719,0.0,311.1494140625,311.1494140625,0.0,1.0,1.0,0.0,'2',1.5759021043777466,1.5759021043777466,0.0,73.0
Anger,stimuli/34M_AN_O.BMP,stimuli/35M_AN_O.BMP,stimuli/34M_AN_O.BMP,stimuli/EmptyFrame.bmp,stimuli/RedFrame.bmp,2,Anger,Male,3,1,1.0,312.16790771484375,312.16790771484375,0.0,316.15594482421875,316.15594482421875,0.0,315.1665344238281,315.1665344238281,0.0,1.0,1.0,0.0,'2',1.2150763273239136,1.2150763273239136,0.0,74.0
Anger,stimuli/10F_AN_O.BMP,stimuli/10F_AN_O.BMP,stimuli/11F_AN_O.BMP,stimuli/EmptyFrame.bmp,stimuli/RedFrame.bmp,1,Anger,Female,3,1,1.0,316.1848449707031,316.1848449707031,0.0,320.166015625,320.166015625,0.0,319.187744140625,319.187744140625,0.0,1.0,1.0,0.0,'1',1.0273857116699219,1.0273857116699219,0.0,75.0
Anger,stimuli/12F_AN_O.BMP,stimuli/12F_AN_O.BMP,stimuli/13F_AN_O.BMP,stimuli/EmptyFrame.bmp,stimuli/RedFrame.bmp,1,Anger,Female,3,1,1.0,320.18841552734375,320.18841552734375,0.0,324.1859436035156,324.1859436035156,0.0,323.19110107421875,323.19110107421875,0.0,1.0,1.0,0.0,'1',1.607728123664856,1.607728123664856,0.0,76.0
MatchFaces,stimuli/MatchFaces.bmp,stimuli/EmptyFace.bmp,stimuli/EmptyFace.bmp,stimuli/EmptyFrame.bmp,stimuli/EmptyFrame.bmp,Null,None,None,3,1,1.0,324.3749084472656,324.3749084472656,0.0,328.1868896484375,328.1868896484375,0.0,327.19775390625,327.19775390625,0.0,0.0,0.0,0.0,,,,,77.0
Happy,stimuli/20M_HA_O.BMP,stimuli/21M_HA_O.BMP,stimuli/20M_HA_O.BMP,stimuli/EmptyFrame.bmp,stimuli/RedFrame.bmp,2,Happy,Male,3,1,1.0,328.2662048339844,328.2662048339844,0.0,332.2066955566406,332.2066955566406,0.0,331.2073974609375,331.2073974609375,0.0,1.0,1.0,0.0,'2',1.5325673818588257,1.5325673818588257,0.0,78.0
Happy,stimuli/01F_HA_O.bmp,stimuli/01F_HA_O.bmp,stimuli/02F_HA_O.bmp,stimuli/EmptyFrame.bmp,stimuli/RedFrame.bmp,1,Happy,Female,3,1,1.0,332.2351379394531,332.2351379394531,0.0,336.218017578125,336.218017578125,0.0,335.2388610839844,335.2388610839844,0.0,1.0,1.0,0.0,'1',0.8781822919845581,0.8781822919845581,0.0,79.0
Happy,stimuli/22M_HA_O.BMP,stimuli/23M_HA_O.BMP,stimuli/22M_HA_O.BMP,stimuli/EmptyFrame.bmp,stimuli/RedFrame.bmp,2,Happy,Male,3,1,1.0,336.24822998046875,336.24822998046875,0.0,340.2282409667969,340.2282409667969,0.0,339.2461242675781,339.2461242675781,0.0,1.0,1.0,0.0,'2',0.9800350069999695,0.9800350069999695,0.0,80.0
Happy,stimuli/24M_HA_O.BMP,stimuli/24M_HA_O.BMP,stimuli/25M_HA_O.BMP,stimuli/EmptyFrame.bmp,stimuli/RedFrame.bmp,1,Happy,Male,3,1,1.0,340.2574157714844,340.2574157714844,0.0,344.2453308105469,344.2453308105469,0.0,343.25335693359375,343.25335693359375,0.0,1.0,1.0,0.0,'1',1.195020079612732,1.195020079612732,0.0,81.0
Happy,stimuli/03F_HA_O.bmp,stimuli/05F_HA_O.bmp,stimuli/03F_HA_O.bmp,stimuli/EmptyFrame.bmp,stimuli/RedFrame.bmp,2,Happy,Female,3,1,1.0,344.2716064453125,344.2716064453125,0.0,348.259765625,348.259765625,0.0,347.2702331542969,347.2702331542969,0.0,1.0,1.0,0.0,'2',1.1462363004684448,1.1462363004684448,0.0,82.0
Happy,stimuli/26M_HA_O.BMP,stimuli/26M_HA_O.BMP,stimuli/27M_HA_O.BMP,stimuli/EmptyFrame.bmp,stimuli/RedFrame.bmp,1,Happy,Male,3,1,1.0,348.2826232910156,348.2826232910156,0.0,352.2807922363281,352.2807922363281,0.0,351.28375244140625,351.28375244140625,0.0,1.0,1.0,0.0,'1',1.3492547273635864,1.3492547273635864,0.0,83.0
Happy,stimuli/06F_HA_O.bmp,stimuli/07F_HA_O.BMP,stimuli/06F_HA_O.bmp,stimuli/EmptyFrame.bmp,stimuli/RedFrame.bmp,2,Happy,Female,3,1,1.0,352.3112487792969,352.3112487792969,0.0,356.295166015625,356.295166015625,0.0,355.3019104003906,355.3019104003906,0.0,1.0,1.0,0.0,'2',1.0994648933410645,1.0994648933410645,0.0,84.0
Happy,stimuli/08F_HA_O.BMP,stimuli/08F_HA_O.BMP,stimuli/09F_HA_O.BMP,stimuli/EmptyFrame.bmp,stimuli/RedFrame.bmp,1,Happy,Female,3,1,1.0,356.3388366699219,356.3388366699219,0.0,360.31134033203125,360.31134033203125,0.0,359.31884765625,359.31884765625,0.0,1.0,1.0,0.0,'1',1.111925721168518,1.111925721168518,0.0,85.0
Happy,stimuli/28M_HA_O.BMP,stimuli/29M_HA_O.BMP,stimuli/28M_HA_O.BMP,stimuli/EmptyFrame.bmp,stimuli/RedFrame.bmp,2,Happy,Male,3,1,1.0,360.3379211425781,360.3379211425781,0.0,364.32952880859375,364.32952880859375,0.0,363.33831787109375,363.33831787109375,0.0,1.0,1.0,0.0,'2',1.276623249053955,1.276623249053955,0.0,86.0
Happy,stimuli/10F_HA_O.BMP,stimuli/10F_HA_O.BMP,stimuli/06F_HA_O.bmp,stimuli/EmptyFrame.bmp,stimuli/RedFrame.bmp,1,Happy,Female,3,1,1.0,364.35107421875,364.35107421875,0.0,368.3520202636719,368.3520202636719,0.0,367.3623962402344,367.3623962402344,0.0,1.0,1.0,0.0,'1',0.8328186273574829,0.8328186273574829,0.0,87.0
MatchFaces,stimuli/MatchFaces.bmp,stimuli/EmptyFace.bmp,stimuli/EmptyFace.bmp,stimuli/EmptyFrame.bmp,stimuli/EmptyFrame.bmp,Null,None,None,3,1,1.0,368.6798095703125,368.6798095703125,0.0,372.35723876953125,372.35723876953125,0.0,371.3643493652344,371.3643493652344,0.0,0.0,0.0,0.0,,,,,88.0
Neutral,stimuli/07F_NE_C.BMP,stimuli/07F_NE_C.BMP,stimuli/14F_NE_C.BMP,stimuli/EmptyFrame.bmp,stimuli/RedFrame.bmp,1,Neutral,Female,3,1,1.0,372.4359130859375,372.4359130859375,0.0,376.3729553222656,376.3729553222656,0.0,375.3826904296875,375.3826904296875,0.0,1.0,1.0,0.0,'1',0.8242201805114746,0.8242201805114746,0.0,89.0
Neutral,stimuli/25M_NE_C.BMP,stimuli/29M_NE_C.BMP,stimuli/25M_NE_C.BMP,stimuli/EmptyFrame.bmp,stimuli/RedFrame.bmp,2,Neutral,Male,3,1,1.0,376.39776611328125,376.39776611328125,0.0,380.3855285644531,380.3855285644531,0.0,379.41290283203125,379.41290283203125,0.0,1.0,1.0,0.0,'2',1.1974982023239136,1.1974982023239136,0.0,90.0
Neutral,stimuli/26M_NE_C.BMP,stimuli/26M_NE_C.BMP,stimuli/28M_NE_C.BMP,stimuli/EmptyFrame.bmp,stimuli/RedFrame.bmp,1,Neutral,Male,3,1,1.0,380.40771484375,380.40771484375,0.0,384.40411376953125,384.40411376953125,0.0,383.4206848144531,383.4206848144531,0.0,1.0,1.0,0.0,'1',0.8525968790054321,0.8525968790054321,0.0,91.0
Neutral,stimuli/08F_NE_C.BMP,stimuli/13F_NE_C.BMP,stimuli/08F_NE_C.BMP,stimuli/EmptyFrame.bmp,stimuli/RedFrame.bmp,2,Neutral,Female,3,1,1.0,384.42822265625,384.42822265625,0.0,388.4211730957031,388.4211730957031,0.0,387.4352111816406,387.4352111816406,0.0,1.0,1.0,0.0,'2',1.0987954139709473,1.0987954139709473,0.0,92.0
Neutral,stimuli/09F_NE_C.BMP,stimuli/09F_NE_C.BMP,stimuli/12F_NE_C.BMP,stimuli/EmptyFrame.bmp,stimuli/RedFrame.bmp,1,Neutral,Female,3,1,1.0,388.444091796875,388.444091796875,0.0,392.4367370605469,392.4367370605469,0.0,391.4467468261719,391.4467468261719,0.0,1.0,1.0,0.0,'1',0.9004684090614319,0.9004684090614319,0.0,93.0
Neutral,stimuli/27M_NE_C.BMP,stimuli/26M_NE_C.BMP,stimuli/27M_NE_C.BMP,stimuli/EmptyFrame.bmp,stimuli/RedFrame.bmp,2,Neutral,Male,3,1,1.0,392.4601135253906,392.4601135253906,0.0,396.44879150390625,396.44879150390625,0.0,395.4664306640625,395.4664306640625,0.0,1.0,1.0,0.0,'2',1.1564555168151855,1.1564555168151855,0.0,94.0
Neutral,stimuli/28M_NE_C.BMP,stimuli/28M_NE_C.BMP,stimuli/25M_NE_C.BMP,stimuli/EmptyFrame.bmp,stimuli/RedFrame.bmp,1,Neutral,Male,3,1,1.0,396.47308349609375,396.47308349609375,0.0,400.46026611328125,400.46026611328125,0.0,399.48321533203125,399.48321533203125,0.0,1.0,1.0,0.0,'1',0.9330328702926636,0.9330328702926636,0.0,95.0
Neutral,stimuli/10F_NE_C.BMP,stimuli/11F_NE_C.BMP,stimuli/10F_NE_C.BMP,stimuli/EmptyFrame.bmp,stimuli/RedFrame.bmp,2,Neutral,Female,3,1,1.0,400.4870300292969,400.4870300292969,0.0,404.4764709472656,404.4764709472656,0.0,403.48760986328125,403.48760986328125,0.0,1.0,1.0,0.0,'2',0.8522436022758484,0.8522436022758484,0.0,96.0
Neutral,stimuli/29M_NE_C.BMP,stimuli/29M_NE_C.BMP,stimuli/24M_NE_C.BMP,stimuli/EmptyFrame.bmp,stimuli/RedFrame.bmp,1,Neutral,Male,3,1,1.0,404.5005798339844,404.5005798339844,0.0,408.4945068359375,408.4945068359375,0.0,407.511962890625,407.511962890625,0.0,1.0,1.0,0.0,'1',0.9664884805679321,0.9664884805679321,0.0,97.0
Neutral,stimuli/11F_NE_C.BMP,stimuli/10F_NE_C.BMP,stimuli/11F_NE_C.BMP,stimuli/EmptyFrame.bmp,stimuli/RedFrame.bmp,2,Neutral,Female,3,1,1.0,408.5189208984375,408.5189208984375,0.0,412.5115966796875,412.5115966796875,0.0,411.5225524902344,411.5225524902344,0.0,1.0,1.0,0.0,'2',0.8250871896743774,0.8250871896743774,0.0,98.0
MatchFaces,stimuli/MatchFaces.bmp,stimuli/EmptyFace.bmp,stimuli/EmptyFace.bmp,stimuli/EmptyFrame.bmp,stimuli/EmptyFrame.bmp,Null,None,None,3,1,1.0,412.7644348144531,412.7644348144531,0.0,416.5135498046875,416.5135498046875,0.0,415.51922607421875,415.51922607421875,0.0,0.0,0.0,0.0,,,,,99.0
Fear,stimuli/23M_FE_O.BMP,stimuli/23M_FE_O.BMP,stimuli/24M_FE_O.BMP,stimuli/EmptyFrame.bmp,stimuli/RedFrame.bmp,1,Fear,Male,3,1,1.0,416.6017150878906,416.6017150878906,0.0,420.5360412597656,420.5360412597656,0.0,419.5408630371094,419.5408630371094,0.0,1.0,1.0,0.0,'1',0.9677520990371704,0.9677520990371704,0.0,100.0
Fear,stimuli/19F_FE_O.BMP,stimuli/18F_FE_O.BMP,stimuli/19F_FE_O.BMP,stimuli/EmptyFrame.bmp,stimuli/RedFrame.bmp,2,Fear,Female,3,1,1.0,420.56591796875,420.56591796875,0.0,424.5478820800781,424.5478820800781,0.0,423.5601806640625,423.5601806640625,0.0,1.0,1.0,0.0,'2',0.7203714847564697,0.7203714847564697,0.0,101.0
Fear,stimuli/17F_FE_O.BMP,stimuli/17F_FE_O.BMP,stimuli/16F_FE_O.BMP,stimuli/EmptyFrame.bmp,stimuli/RedFrame.bmp,1,Fear,Female,3,1,1.0,424.5740661621094,424.5740661621094,0.0,428.56402587890625,428.56402587890625,0.0,427.5697937011719,427.5697937011719,0.0,1.0,1.0,0.0,'1',0.8546212911605835,0.8546212911605835,0.0,102.0
Fear,stimuli/15F_FE_O.BMP,stimuli/18F_FE_O.BMP,stimuli/15F_FE_O.BMP,stimuli/EmptyFrame.bmp,stimuli/RedFrame.bmp,2,Fear,Female,3,1,1.0,428.58966064453125,428.58966064453125,0.0,432.5807800292969,432.5807800292969,0.0,431.6023254394531,431.6023254394531,0.0,1.0,1.0,0.0,'2',0.9124752283096313,0.9124752283096313,0.0,103.0
Fear,stimuli/21M_FE_O.BMP,stimuli/21M_FE_O.BMP,stimuli/22M_FE_O.BMP,stimuli/EmptyFrame.bmp,stimuli/RedFrame.bmp,1,Fear,Male,3,1,1.0,432.6070251464844,432.6070251464844,0.0,436.59832763671875,436.59832763671875,0.0,435.6151428222656,435.6151428222656,0.0,1.0,1.0,0.0,'1',0.8868713974952698,0.8868713974952698,0.0,104.0
Fear,stimuli/29M_FE_O.BMP,stimuli/30M_FE_O.BMP,stimuli/29M_FE_O.BMP,stimuli/EmptyFrame.bmp,stimuli/RedFrame.bmp,2,Fear,Male,3,1,1.0,436.6211242675781,436.6211242675781,0.0,440.6139221191406,440.6139221191406,0.0,439.6286926269531,439.6286926269531,0.0,1.0,1.0,0.0,'2',0.8918675184249878,0.8918675184249878,0.0,105.0
Fear,stimuli/31M_FE_O.BMP,stimuli/31M_FE_O.BMP,stimuli/38M_FE_O.BMP,stimuli/EmptyFrame.bmp,stimuli/RedFrame.bmp,1,Fear,Male,3,1,1.0,440.6422119140625,440.6422119140625,0.0,444.6256408691406,444.6256408691406,0.0,443.6340637207031,443.6340637207031,0.0,1.0,1.0,0.0,'1',0.7563949823379517,0.7563949823379517,0.0,106.0
Fear,stimuli/09F_FE_O.BMP,stimuli/07F_FE_O.BMP,stimuli/09F_FE_O.BMP,stimuli/EmptyFrame.bmp,stimuli/RedFrame.bmp,2,Fear,Female,3,1,1.0,444.6471862792969,444.6471862792969,0.0,448.63433837890625,448.63433837890625,0.0,447.6693115234375,447.6693115234375,0.0,1.0,1.0,0.0,'2',0.8704432845115662,0.8704432845115662,0.0,107.0
Fear,stimuli/11F_FE_O.BMP,stimuli/12F_FE_O.BMP,stimuli/11F_FE_O.BMP,stimuli/EmptyFrame.bmp,stimuli/RedFrame.bmp,2,Fear,Female,3,1,1.0,448.6566162109375,448.6566162109375,0.0,452.6491394042969,452.6491394042969,0.0,451.66412353515625,451.66412353515625,0.0,1.0,1.0,0.0,'2',1.789703369140625,1.789703369140625,0.0,108.0
Fear,stimuli/34M_FE_O.BMP,stimuli/34M_FE_O.BMP,stimuli/33M_FE_O.BMP,stimuli/EmptyFrame.bmp,stimuli/RedFrame.bmp,1,Fear,Male,3,1,1.0,452.6796569824219,452.6796569824219,0.0,456.66015625,456.66015625,0.0,455.6768798828125,455.6768798828125,0.0,1.0,1.0,0.0,'1',1.284719467163086,1.284719467163086,0.0,109.0

extraInfo
participant,sub023
session,001
date,2025_Jul_29_0917
expName,HaririTask_Ver1
psychopyVersion,3.0.1
frameRate,None
