TrialType,Top,Left,Right,EmptyFrame,SelectedFrame,Correct,Emotion,Gender,TrialLength,FixationLength,n,GCFaceStartTime_mean,GCFaceStartTime_raw,GCFaceStartTime_std,GCPostFaceFixationEndTime_mean,GCPostFaceFixationEndTime_raw,GCPostFaceFixationEndTime_std,GCPostFaceFixationStartTime_mean,GCPostFaceFixationStartTime_raw,GCPostFaceFixationStartTime_std,key_resp_trial.corr_mean,key_resp_trial.corr_raw,key_resp_trial.corr_std,key_resp_trial.keys_raw,key_resp_trial.rt_mean,key_resp_trial.rt_raw,key_resp_trial.rt_std,order
MatchFaces,stimuli/MatchFaces.bmp,stimuli/EmptyFace.bmp,stimuli/EmptyFace.bmp,stimuli/EmptyFrame.bmp,stimuli/EmptyFrame.bmp,Null,None,None,3,1,1.0,15.226078033447266,15.226078033447266,0.0,19.047420501708984,19.047420501708984,0.0,18.058103561401367,18.058103561401367,0.0,0.0,0.0,0.0,,,,,0.0
Anger,stimuli/01F_AN_O.bmp,stimuli/19F_AN_O.BMP,stimuli/01F_AN_O.bmp,stimuli/EmptyFrame.bmp,stimuli/RedFrame.bmp,2,Anger,Female,3,1,1.0,19.227495193481445,19.227495193481445,0.0,23.069196701049805,23.069196701049805,0.0,22.075660705566406,22.075660705566406,0.0,1.0,1.0,0.0,'2',0.9886887073516846,0.9886887073516846,0.0,1.0
Anger,stimuli/02f_an_o.bmp,stimuli/18F_AN_O.BMP,stimuli/02f_an_o.bmp,stimuli/EmptyFrame.bmp,stimuli/RedFrame.bmp,2,Anger,Female,3,1,1.0,23.094642639160156,23.094642639160156,0.0,27.079483032226562,27.079483032226562,0.0,26.09108543395996,26.09108543395996,0.0,1.0,1.0,0.0,'2',0.8115091919898987,0.8115091919898987,0.0,2.0
Anger,stimuli/20M_AN_O.BMP,stimuli/34M_AN_O.BMP,stimuli/20M_AN_O.BMP,stimuli/EmptyFrame.bmp,stimuli/RedFrame.bmp,2,Anger,Male,3,1,1.0,27.101722717285156,27.101722717285156,0.0,31.098087310791016,31.098087310791016,0.0,30.11054801940918,30.11054801940918,0.0,1.0,1.0,0.0,'2',1.3202979564666748,1.3202979564666748,0.0,3.0
Anger,stimuli/03F_AN_O.bmp,stimuli/03F_AN_O.bmp,stimuli/17F_AN_O.BMP,stimuli/EmptyFrame.bmp,stimuli/RedFrame.bmp,1,Anger,Female,3,1,1.0,31.118120193481445,31.118120193481445,0.0,35.109962463378906,35.109962463378906,0.0,34.1206169128418,34.1206169128418,0.0,1.0,1.0,0.0,'1',0.7333722114562988,0.7333722114562988,0.0,4.0
Anger,stimuli/21M_AN_O.BMP,stimuli/21M_AN_O.BMP,stimuli/33M_AN_O.BMP,stimuli/EmptyFrame.bmp,stimuli/RedFrame.bmp,1,Anger,Male,3,1,1.0,35.1396598815918,35.1396598815918,0.0,39.128414154052734,39.128414154052734,0.0,38.134700775146484,38.134700775146484,0.0,1.0,1.0,0.0,'1',0.911478579044342,0.911478579044342,0.0,5.0
Anger,stimuli/22M_AN_O.BMP,stimuli/32M_AN_O.BMP,stimuli/22M_AN_O.BMP,stimuli/EmptyFrame.bmp,stimuli/RedFrame.bmp,2,Anger,Male,3,1,1.0,39.14954376220703,39.14954376220703,0.0,43.14327621459961,43.14327621459961,0.0,42.16040802001953,42.16040802001953,0.0,1.0,1.0,0.0,'2',0.5353062748908997,0.5353062748908997,0.0,6.0
Anger,stimuli/23M_AN_O.BMP,stimuli/23M_AN_O.BMP,stimuli/31M_AN_O.BMP,stimuli/EmptyFrame.bmp,stimuli/RedFrame.bmp,1,Anger,Male,3,1,1.0,43.16798400878906,43.16798400878906,0.0,47.158138275146484,47.158138275146484,0.0,46.175010681152344,46.175010681152344,0.0,1.0,1.0,0.0,'1',0.8585270047187805,0.8585270047187805,0.0,7.0
Anger,stimuli/05F_AN_O.bmp,stimuli/05F_AN_O.bmp,stimuli/16F_AN_O.BMP,stimuli/EmptyFrame.bmp,stimuli/RedFrame.bmp,1,Anger,Female,3,1,1.0,47.18352127075195,47.18352127075195,0.0,51.18070983886719,51.18070983886719,0.0,50.182350158691406,50.182350158691406,0.0,1.0,1.0,0.0,'1',0.5600016117095947,0.5600016117095947,0.0,8.0
Anger,stimuli/06F_AN_O.bmp,stimuli/15F_AN_O.BMP,stimuli/06F_AN_O.bmp,stimuli/EmptyFrame.bmp,stimuli/RedFrame.bmp,2,Anger,Female,3,1,1.0,51.206485748291016,51.206485748291016,0.0,55.19015884399414,55.19015884399414,0.0,54.20912170410156,54.20912170410156,0.0,1.0,1.0,0.0,'2',0.5502232909202576,0.5502232909202576,0.0,9.0
Anger,stimuli/24M_AN_O.BMP,stimuli/24M_AN_O.BMP,stimuli/30M_AN_O.BMP,stimuli/EmptyFrame.bmp,stimuli/RedFrame.bmp,1,Anger,Male,3,1,1.0,55.21714782714844,55.21714782714844,0.0,59.209136962890625,59.209136962890625,0.0,58.223262786865234,58.223262786865234,0.0,1.0,1.0,0.0,'1',0.6004235148429871,0.6004235148429871,0.0,10.0
MatchShape,stimuli/MatchShapes.bmp,stimuli/EmptyFace.bmp,stimuli/EmptyFace.bmp,stimuli/EmptyFrame.bmp,stimuli/EmptyFrame.bmp,Null,None,None,3,1,1.0,59.233707427978516,59.233707427978516,0.0,63.22047424316406,63.22047424316406,0.0,62.21759033203125,62.21759033203125,0.0,0.0,0.0,0.0,,,,,11.0
Shape,stimuli/horizontal.bmp,stimuli/horizontal.bmp,stimuli/circle.bmp,stimuli/EmptyFrame.bmp,stimuli/RedFrame.bmp,1,Shape,None,3,1,1.0,63.25892639160156,63.25892639160156,0.0,67.24100494384766,67.24100494384766,0.0,66.2412109375,66.2412109375,0.0,1.0,1.0,0.0,'1',1.2712862491607666,1.2712862491607666,0.0,12.0
Shape,stimuli/vertical.bmp,stimuli/horizontal.bmp,stimuli/vertical.bmp,stimuli/EmptyFrame.bmp,stimuli/RedFrame.bmp,2,Shape,None,3,1,1.0,67.26424407958984,67.26424407958984,0.0,71.25916290283203,71.25916290283203,0.0,70.2637939453125,70.2637939453125,0.0,1.0,1.0,0.0,'2',0.6238703727722168,0.6238703727722168,0.0,13.0
Shape,stimuli/horizontal.bmp,stimuli/horizontal.bmp,stimuli/vertical.bmp,stimuli/EmptyFrame.bmp,stimuli/RedFrame.bmp,1,Shape,None,3,1,1.0,71.28173065185547,71.28173065185547,0.0,75.27365112304688,75.27365112304688,0.0,74.2824478149414,74.2824478149414,0.0,1.0,1.0,0.0,'1',0.6859738230705261,0.6859738230705261,0.0,14.0
Shape,stimuli/horizontal.bmp,stimuli/circle.bmp,stimuli/horizontal.bmp,stimuli/EmptyFrame.bmp,stimuli/RedFrame.bmp,2,Shape,None,3,1,1.0,75.29690551757812,75.29690551757812,0.0,79.2860336303711,79.2860336303711,0.0,78.30441284179688,78.30441284179688,0.0,1.0,1.0,0.0,'2',0.6118158102035522,0.6118158102035522,0.0,15.0
Shape,stimuli/circle.bmp,stimuli/circle.bmp,stimuli/vertical.bmp,stimuli/EmptyFrame.bmp,stimuli/RedFrame.bmp,1,Shape,None,3,1,1.0,79.30902862548828,79.30902862548828,0.0,83.29915618896484,83.29915618896484,0.0,82.30821228027344,82.30821228027344,0.0,1.0,1.0,0.0,'1',0.5016883015632629,0.5016883015632629,0.0,16.0
Shape,stimuli/circle.bmp,stimuli/circle.bmp,stimuli/horizontal.bmp,stimuli/EmptyFrame.bmp,stimuli/RedFrame.bmp,1,Shape,None,3,1,1.0,83.32237243652344,83.32237243652344,0.0,87.3109359741211,87.3109359741211,0.0,86.32345581054688,86.32345581054688,0.0,1.0,1.0,0.0,'1',0.542546808719635,0.542546808719635,0.0,17.0
Shape,stimuli/vertical.bmp,stimuli/circle.bmp,stimuli/vertical.bmp,stimuli/EmptyFrame.bmp,stimuli/RedFrame.bmp,2,Shape,None,3,1,1.0,87.33251953125,87.33251953125,0.0,91.32344055175781,91.32344055175781,0.0,90.33629608154297,90.33629608154297,0.0,1.0,1.0,0.0,'2',0.6314247250556946,0.6314247250556946,0.0,18.0
Shape,stimuli/circle.bmp,stimuli/vertical.bmp,stimuli/circle.bmp,stimuli/EmptyFrame.bmp,stimuli/RedFrame.bmp,2,Shape,None,3,1,1.0,91.34581756591797,91.34581756591797,0.0,95.3414306640625,95.3414306640625,0.0,94.35774993896484,94.35774993896484,0.0,1.0,1.0,0.0,'2',0.4782063961029053,0.4782063961029053,0.0,19.0
Shape,stimuli/vertical.bmp,stimuli/horizontal.bmp,stimuli/vertical.bmp,stimuli/EmptyFrame.bmp,stimuli/RedFrame.bmp,2,Shape,None,3,1,1.0,95.36405944824219,95.36405944824219,0.0,99.356689453125,99.356689453125,0.0,98.369873046875,98.369873046875,0.0,1.0,1.0,0.0,'2',0.4891253113746643,0.4891253113746643,0.0,20.0
Shape,stimuli/vertical.bmp,stimuli/vertical.bmp,stimuli/circle.bmp,stimuli/EmptyFrame.bmp,stimuli/RedFrame.bmp,1,Shape,None,3,1,1.0,99.37890625,99.37890625,0.0,103.37094116210938,103.37094116210938,0.0,102.37914276123047,102.37914276123047,0.0,1.0,1.0,0.0,'1',0.7586687803268433,0.7586687803268433,0.0,21.0
MatchFaces,stimuli/MatchFaces.bmp,stimuli/EmptyFace.bmp,stimuli/EmptyFace.bmp,stimuli/EmptyFrame.bmp,stimuli/EmptyFrame.bmp,Null,None,None,3,1,1.0,103.50017547607422,103.50017547607422,0.0,107.37232971191406,107.37232971191406,0.0,106.3896255493164,106.3896255493164,0.0,0.0,0.0,0.0,,,,,22.0
Neutral,stimuli/20M_NE_C.BMP,stimuli/21M_NE_C.BMP,stimuli/20M_NE_C.BMP,stimuli/EmptyFrame.bmp,stimuli/RedFrame.bmp,2,Neutral,Male,3,1,1.0,107.46197509765625,107.46197509765625,0.0,111.38699340820312,111.38699340820312,0.0,110.40299224853516,110.40299224853516,0.0,1.0,1.0,0.0,'2',0.8937379717826843,0.8937379717826843,0.0,23.0
Neutral,stimuli/01F_NE_C.bmp,stimuli/01F_NE_C.bmp,stimuli/02F_NE_C.bmp,stimuli/EmptyFrame.bmp,stimuli/RedFrame.bmp,1,Neutral,Female,3,1,1.0,111.41547393798828,111.41547393798828,0.0,115.40223693847656,115.40223693847656,0.0,114.42022705078125,114.42022705078125,0.0,1.0,1.0,0.0,'1',0.49106431007385254,0.49106431007385254,0.0,24.0
Neutral,stimuli/22M_NE_C.BMP,stimuli/23M_NE_C.BMP,stimuli/22M_NE_C.BMP,stimuli/EmptyFrame.bmp,stimuli/RedFrame.bmp,2,Neutral,Male,3,1,1.0,115.43035888671875,115.43035888671875,0.0,119.42440795898438,119.42440795898438,0.0,118.42771911621094,118.42771911621094,0.0,1.0,1.0,0.0,'2',0.8917934894561768,0.8917934894561768,0.0,25.0
Neutral,stimuli/24M_NE_C.BMP,stimuli/24M_NE_C.BMP,stimuli/25M_NE_C.BMP,stimuli/EmptyFrame.bmp,stimuli/RedFrame.bmp,1,Neutral,Male,3,1,1.0,119.4520492553711,119.4520492553711,0.0,123.43631744384766,123.43631744384766,0.0,122.44982147216797,122.44982147216797,0.0,1.0,1.0,0.0,'1',0.7020022869110107,0.7020022869110107,0.0,26.0
Neutral,stimuli/03F_NE_C.bmp,stimuli/05F_NE_C.bmp,stimuli/03F_NE_C.bmp,stimuli/EmptyFrame.bmp,stimuli/RedFrame.bmp,2,Neutral,Female,3,1,1.0,123.46076202392578,123.46076202392578,0.0,127.45426177978516,127.45426177978516,0.0,126.46477508544922,126.46477508544922,0.0,1.0,1.0,0.0,'2',0.6991245746612549,0.6991245746612549,0.0,27.0
Neutral,stimuli/26M_NE_C.BMP,stimuli/26M_NE_C.BMP,stimuli/27M_NE_C.BMP,stimuli/EmptyFrame.bmp,stimuli/RedFrame.bmp,1,Neutral,Male,3,1,1.0,127.4825668334961,127.4825668334961,0.0,131.4753875732422,131.4753875732422,0.0,130.48196411132812,130.48196411132812,0.0,1.0,1.0,0.0,'1',0.5960001945495605,0.5960001945495605,0.0,28.0
Neutral,stimuli/06F_NE_C.bmp,stimuli/07F_NE_C.BMP,stimuli/06F_NE_C.bmp,stimuli/EmptyFrame.bmp,stimuli/RedFrame.bmp,2,Neutral,Female,3,1,1.0,131.50311279296875,131.50311279296875,0.0,135.49400329589844,135.49400329589844,0.0,134.5006866455078,134.5006866455078,0.0,1.0,1.0,0.0,'2',0.7112945914268494,0.7112945914268494,0.0,29.0
Neutral,stimuli/08F_NE_C.BMP,stimuli/08F_NE_C.BMP,stimuli/09F_NE_C.BMP,stimuli/EmptyFrame.bmp,stimuli/RedFrame.bmp,1,Neutral,Female,3,1,1.0,135.52015686035156,135.52015686035156,0.0,139.51171875,139.51171875,0.0,138.52487182617188,138.52487182617188,0.0,1.0,1.0,0.0,'1',0.6859632134437561,0.6859632134437561,0.0,30.0
Neutral,stimuli/28M_NE_C.BMP,stimuli/29M_NE_C.BMP,stimuli/28M_NE_C.BMP,stimuli/EmptyFrame.bmp,stimuli/RedFrame.bmp,2,Neutral,Male,3,1,1.0,139.5393524169922,139.5393524169922,0.0,143.52420043945312,143.52420043945312,0.0,142.53790283203125,142.53790283203125,0.0,1.0,1.0,0.0,'2',0.540010929107666,0.540010929107666,0.0,31.0
Neutral,stimuli/10F_NE_C.BMP,stimuli/10F_NE_C.BMP,stimuli/06F_NE_C.bmp,stimuli/EmptyFrame.bmp,stimuli/RedFrame.bmp,1,Neutral,Female,3,1,1.0,143.5497283935547,143.5497283935547,0.0,147.5431671142578,147.5431671142578,0.0,146.5451202392578,146.5451202392578,0.0,1.0,1.0,0.0,'1',0.688896119594574,0.688896119594574,0.0,32.0
MatchFaces,stimuli/MatchFaces.bmp,stimuli/EmptyFace.bmp,stimuli/EmptyFace.bmp,stimuli/EmptyFrame.bmp,stimuli/EmptyFrame.bmp,Null,None,None,3,1,1.0,147.66944885253906,147.66944885253906,0.0,151.5494842529297,151.5494842529297,0.0,150.55136108398438,150.55136108398438,0.0,0.0,0.0,0.0,,,,,33.0
Fear,stimuli/07F_FE_O.BMP,stimuli/07F_FE_O.BMP,stimuli/14F_FE_O.BMP,stimuli/EmptyFrame.bmp,stimuli/RedFrame.bmp,1,Fear,Female,3,1,1.0,151.59280395507812,151.59280395507812,0.0,155.56979370117188,155.56979370117188,0.0,154.5755615234375,154.5755615234375,0.0,1.0,1.0,0.0,'1',0.707368016242981,0.707368016242981,0.0,34.0
Fear,stimuli/25M_FE_O.BMP,stimuli/29M_FE_O.BMP,stimuli/25M_FE_O.BMP,stimuli/EmptyFrame.bmp,stimuli/RedFrame.bmp,2,Fear,Male,3,1,1.0,155.595947265625,155.595947265625,0.0,159.58509826660156,159.58509826660156,0.0,158.58975219726562,158.58975219726562,0.0,1.0,1.0,0.0,'2',1.0090861320495605,1.0090861320495605,0.0,35.0
Fear,stimuli/26M_FE_O.BMP,stimuli/26M_FE_O.BMP,stimuli/28M_FE_O.BMP,stimuli/EmptyFrame.bmp,stimuli/RedFrame.bmp,1,Fear,Male,3,1,1.0,159.6163330078125,159.6163330078125,0.0,163.6027069091797,163.6027069091797,0.0,162.61680603027344,162.61680603027344,0.0,1.0,1.0,0.0,'1',0.5912821292877197,0.5912821292877197,0.0,36.0
Fear,stimuli/08F_FE_O.BMP,stimuli/13F_FE_O.BMP,stimuli/08F_FE_O.BMP,stimuli/EmptyFrame.bmp,stimuli/RedFrame.bmp,2,Fear,Female,3,1,1.0,163.62713623046875,163.62713623046875,0.0,167.61886596679688,167.61886596679688,0.0,166.62286376953125,166.62286376953125,0.0,1.0,1.0,0.0,'2',0.8380780816078186,0.8380780816078186,0.0,37.0
Fear,stimuli/09F_FE_O.BMP,stimuli/09F_FE_O.BMP,stimuli/12F_FE_O.BMP,stimuli/EmptyFrame.bmp,stimuli/RedFrame.bmp,1,Fear,Female,3,1,1.0,167.64649963378906,167.64649963378906,0.0,171.6293487548828,171.6293487548828,0.0,170.64236450195312,170.64236450195312,0.0,1.0,1.0,0.0,'1',0.5650002956390381,0.5650002956390381,0.0,38.0
Fear,stimuli/27M_FE_O.BMP,stimuli/26M_FE_O.BMP,stimuli/27M_FE_O.BMP,stimuli/EmptyFrame.bmp,stimuli/RedFrame.bmp,2,Fear,Male,3,1,1.0,171.65777587890625,171.65777587890625,0.0,175.63792419433594,175.63792419433594,0.0,174.65301513671875,174.65301513671875,0.0,1.0,1.0,0.0,'2',0.5885040163993835,0.5885040163993835,0.0,39.0
Fear,stimuli/28M_FE_O.BMP,stimuli/28M_FE_O.BMP,stimuli/25M_FE_O.BMP,stimuli/EmptyFrame.bmp,stimuli/RedFrame.bmp,1,Fear,Male,3,1,1.0,175.66078186035156,175.66078186035156,0.0,179.6520538330078,179.6520538330078,0.0,178.6563720703125,178.6563720703125,0.0,1.0,1.0,0.0,'1',0.7912498712539673,0.7912498712539673,0.0,40.0
Fear,stimuli/10F_FE_O.BMP,stimuli/11F_FE_O.BMP,stimuli/10F_FE_O.BMP,stimuli/EmptyFrame.bmp,stimuli/RedFrame.bmp,2,Fear,Female,3,1,1.0,179.67971801757812,179.67971801757812,0.0,183.67236328125,183.67236328125,0.0,182.67965698242188,182.67965698242188,0.0,1.0,1.0,0.0,'2',0.6403781771659851,0.6403781771659851,0.0,41.0
Fear,stimuli/29M_FE_O.BMP,stimuli/29M_FE_O.BMP,stimuli/24M_FE_O.BMP,stimuli/EmptyFrame.bmp,stimuli/RedFrame.bmp,1,Fear,Male,3,1,1.0,183.69857788085938,183.69857788085938,0.0,187.68487548828125,187.68487548828125,0.0,186.69778442382812,186.69778442382812,0.0,1.0,1.0,0.0,'1',0.7026553750038147,0.7026553750038147,0.0,42.0
Fear,stimuli/11F_FE_O.BMP,stimuli/10F_FE_O.BMP,stimuli/11F_FE_O.BMP,stimuli/EmptyFrame.bmp,stimuli/RedFrame.bmp,2,Fear,Female,3,1,1.0,187.70916748046875,187.70916748046875,0.0,191.70077514648438,191.70077514648438,0.0,190.7056121826172,190.7056121826172,0.0,1.0,1.0,0.0,'2',0.590157687664032,0.590157687664032,0.0,43.0
MatchFaces,stimuli/MatchFaces.bmp,stimuli/EmptyFace.bmp,stimuli/EmptyFace.bmp,stimuli/EmptyFrame.bmp,stimuli/EmptyFrame.bmp,Null,None,None,3,1,1.0,191.8329315185547,191.8329315185547,0.0,195.7028350830078,195.7028350830078,0.0,194.71539306640625,194.71539306640625,0.0,0.0,0.0,0.0,,,,,44.0
Happy,stimuli/19F_HA_O.BMP,stimuli/19F_HA_O.BMP,stimuli/18F_HA_O.BMP,stimuli/EmptyFrame.bmp,stimuli/RedFrame.bmp,1,Happy,Female,3,1,1.0,195.7493133544922,195.7493133544922,0.0,199.7139129638672,199.7139129638672,0.0,198.73204040527344,198.73204040527344,0.0,1.0,1.0,0.0,'1',0.6336742043495178,0.6336742043495178,0.0,45.0
Happy,stimuli/17F_HA_O.BMP,stimuli/16F_HA_O.BMP,stimuli/17F_HA_O.BMP,stimuli/EmptyFrame.bmp,stimuli/RedFrame.bmp,2,Happy,Female,3,1,1.0,199.73793029785156,199.73793029785156,0.0,203.73226928710938,203.73226928710938,0.0,202.739013671875,202.739013671875,0.0,1.0,1.0,0.0,'2',0.8302115201950073,0.8302115201950073,0.0,46.0
Happy,stimuli/43M_HA_O.BMP,stimuli/42M_HA_O.BMP,stimuli/43M_HA_O.BMP,stimuli/EmptyFrame.bmp,stimuli/RedFrame.bmp,2,Happy,Male,3,1,1.0,203.75875854492188,203.75875854492188,0.0,207.74790954589844,207.74790954589844,0.0,206.7528839111328,206.7528839111328,0.0,1.0,1.0,0.0,'2',0.5982071757316589,0.5982071757316589,0.0,47.0
Happy,stimuli/41M_HA_O.BMP,stimuli/41M_HA_O.BMP,stimuli/40M_HA_O.BMP,stimuli/EmptyFrame.bmp,stimuli/RedFrame.bmp,1,Happy,Male,3,1,1.0,207.7750701904297,207.7750701904297,0.0,211.7679901123047,211.7679901123047,0.0,210.77462768554688,210.77462768554688,0.0,1.0,1.0,0.0,'1',0.6075965166091919,0.6075965166091919,0.0,48.0
Happy,stimuli/15F_HA_O.BMP,stimuli/15F_HA_O.BMP,stimuli/14F_HA_O.BMP,stimuli/EmptyFrame.bmp,stimuli/RedFrame.bmp,1,Happy,Female,3,1,1.0,211.7930450439453,211.7930450439453,0.0,215.77833557128906,215.77833557128906,0.0,214.78814697265625,214.78814697265625,0.0,1.0,1.0,0.0,'1',0.9308367967605591,0.9308367967605591,0.0,49.0
Happy,stimuli/13F_HA_O.BMP,stimuli/13F_HA_O.BMP,stimuli/12F_HA_O.BMP,stimuli/EmptyFrame.bmp,stimuli/RedFrame.bmp,1,Happy,Female,3,1,1.0,215.8040771484375,215.8040771484375,0.0,219.79151916503906,219.79151916503906,0.0,218.80271911621094,218.80271911621094,0.0,1.0,1.0,0.0,'1',0.6376169919967651,0.6376169919967651,0.0,50.0
Happy,stimuli/39M_HA_O.BMP,stimuli/38M_HA_O.BMP,stimuli/39M_HA_O.BMP,stimuli/EmptyFrame.bmp,stimuli/RedFrame.bmp,2,Happy,Male,3,1,1.0,219.8173828125,219.8173828125,0.0,223.811279296875,223.811279296875,0.0,222.81590270996094,222.81590270996094,0.0,1.0,1.0,0.0,'2',0.46796730160713196,0.46796730160713196,0.0,51.0
Happy,stimuli/37M_HA_O.BMP,stimuli/37M_HA_O.BMP,stimuli/36M_HA_O.BMP,stimuli/EmptyFrame.bmp,stimuli/RedFrame.bmp,1,Happy,Male,3,1,1.0,223.83897399902344,223.83897399902344,0.0,227.82382202148438,227.82382202148438,0.0,226.8382568359375,226.8382568359375,0.0,1.0,1.0,0.0,'1',0.5645971894264221,0.5645971894264221,0.0,52.0
Happy,stimuli/35M_HA_O.BMP,stimuli/34M_HA_O.BMP,stimuli/35M_HA_O.BMP,stimuli/EmptyFrame.bmp,stimuli/RedFrame.bmp,2,Happy,Male,3,1,1.0,227.89012145996094,227.89012145996094,0.0,231.83631896972656,231.83631896972656,0.0,230.84901428222656,230.84901428222656,0.0,1.0,1.0,0.0,'2',0.6061509251594543,0.6061509251594543,0.0,53.0
Happy,stimuli/11F_HA_O.BMP,stimuli/10F_HA_O.BMP,stimuli/11F_HA_O.BMP,stimuli/EmptyFrame.bmp,stimuli/RedFrame.bmp,2,Happy,Female,3,1,1.0,231.86387634277344,231.86387634277344,0.0,235.8541259765625,235.8541259765625,0.0,234.86727905273438,234.86727905273438,0.0,1.0,1.0,0.0,'2',0.5263327956199646,0.5263327956199646,0.0,54.0
Match Shape,stimuli/MatchShapes.bmp,stimuli/EmptyFace.bmp,stimuli/EmptyFace.bmp,stimuli/EmptyFrame.bmp,stimuli/EmptyFrame.bmp,Null,None,None,3,1,1.0,235.88136291503906,235.88136291503906,0.0,239.85745239257812,239.85745239257812,0.0,238.87562561035156,238.87562561035156,0.0,0.0,0.0,0.0,,,,,55.0
Shape,stimuli/circle.bmp,stimuli/vertical.bmp,stimuli/circle.bmp,stimuli/EmptyFrame.bmp,stimuli/RedFrame.bmp,2,Shape,None,3,1,1.0,239.88621520996094,239.88621520996094,0.0,243.8800048828125,243.8800048828125,0.0,242.8828887939453,242.8828887939453,0.0,1.0,1.0,0.0,'2',0.7660543918609619,0.7660543918609619,0.0,56.0
Shape,stimuli/horizontal.bmp,stimuli/circle.bmp,stimuli/horizontal.bmp,stimuli/EmptyFrame.bmp,stimuli/RedFrame.bmp,2,Shape,None,3,1,1.0,243.9031524658203,243.9031524658203,0.0,247.90505981445312,247.90505981445312,0.0,246.90203857421875,246.90203857421875,0.0,1.0,1.0,0.0,'2',0.7491955161094666,0.7491955161094666,0.0,57.0
Shape,stimuli/vertical.bmp,stimuli/vertical.bmp,stimuli/horizontal.bmp,stimuli/EmptyFrame.bmp,stimuli/RedFrame.bmp,1,Shape,None,3,1,1.0,247.93045043945312,247.93045043945312,0.0,251.92034912109375,251.92034912109375,0.0,250.9239959716797,250.9239959716797,0.0,1.0,1.0,0.0,'1',0.5875079035758972,0.5875079035758972,0.0,58.0
Shape,stimuli/horizontal.bmp,stimuli/circle.bmp,stimuli/horizontal.bmp,stimuli/EmptyFrame.bmp,stimuli/RedFrame.bmp,2,Shape,None,3,1,1.0,251.9413299560547,251.9413299560547,0.0,255.94281005859375,255.94281005859375,0.0,254.9425048828125,254.9425048828125,0.0,1.0,1.0,0.0,'2',0.5566911101341248,0.5566911101341248,0.0,59.0
Shape,stimuli/horizontal.bmp,stimuli/horizontal.bmp,stimuli/vertical.bmp,stimuli/EmptyFrame.bmp,stimuli/RedFrame.bmp,1,Shape,None,3,1,1.0,255.96432495117188,255.96432495117188,0.0,259.96563720703125,259.96563720703125,0.0,258.9731750488281,258.9731750488281,0.0,1.0,1.0,0.0,'1',0.6667671203613281,0.6667671203613281,0.0,60.0
Shape,stimuli/vertical.bmp,stimuli/vertical.bmp,stimuli/circle.bmp,stimuli/EmptyFrame.bmp,stimuli/RedFrame.bmp,1,Shape,None,3,1,1.0,259.9872741699219,259.9872741699219,0.0,263.9730224609375,263.9730224609375,0.0,262.9912109375,262.9912109375,0.0,1.0,1.0,0.0,'1',1.109429121017456,1.109429121017456,0.0,61.0
Shape,stimuli/circle.bmp,stimuli/horizontal.bmp,stimuli/circle.bmp,stimuli/EmptyFrame.bmp,stimuli/RedFrame.bmp,2,Shape,None,3,1,1.0,263.9937744140625,263.9937744140625,0.0,267.99298095703125,267.99298095703125,0.0,266.9954528808594,266.9954528808594,0.0,1.0,1.0,0.0,'2',0.4914548993110657,0.4914548993110657,0.0,62.0
Shape,stimuli/circle.bmp,stimuli/vertical.bmp,stimuli/circle.bmp,stimuli/EmptyFrame.bmp,stimuli/RedFrame.bmp,2,Shape,None,3,1,1.0,268.01788330078125,268.01788330078125,0.0,272.0176086425781,272.0176086425781,0.0,271.02166748046875,271.02166748046875,0.0,1.0,1.0,0.0,'2',0.4523710012435913,0.4523710012435913,0.0,63.0
Shape,stimuli/vertical.bmp,stimuli/vertical.bmp,stimuli/horizontal.bmp,stimuli/EmptyFrame.bmp,stimuli/RedFrame.bmp,1,Shape,None,3,1,1.0,272.0450439453125,272.0450439453125,0.0,276.0258483886719,276.0258483886719,0.0,275.0406188964844,275.0406188964844,0.0,0.0,0.0,0.0,'2',0.44522780179977417,0.44522780179977417,0.0,64.0
Shape,stimuli/horizontal.bmp,stimuli/horizontal.bmp,stimuli/circle.bmp,stimuli/EmptyFrame.bmp,stimuli/RedFrame.bmp,1,Shape,None,3,1,1.0,276.0478515625,276.0478515625,0.0,280.03924560546875,280.03924560546875,0.0,279.0486755371094,279.0486755371094,0.0,1.0,1.0,0.0,'1',0.5565381050109863,0.5565381050109863,0.0,65.0
MatchFaces,stimuli/MatchFaces.bmp,stimuli/EmptyFace.bmp,stimuli/EmptyFace.bmp,stimuli/EmptyFrame.bmp,stimuli/EmptyFrame.bmp,Null,None,None,3,1,1.0,280.1743469238281,280.1743469238281,0.0,284.0412292480469,284.0412292480469,0.0,283.0521240234375,283.0521240234375,0.0,0.0,0.0,0.0,,,,,66.0
Anger,stimuli/42M_AN_O.BMP,stimuli/42M_AN_O.BMP,stimuli/43M_AN_O.BMP,stimuli/EmptyFrame.bmp,stimuli/RedFrame.bmp,1,Anger,Male,3,1,1.0,284.0953063964844,284.0953063964844,0.0,288.05804443359375,288.05804443359375,0.0,287.06365966796875,287.06365966796875,0.0,1.0,1.0,0.0,'1',0.6239665746688843,0.6239665746688843,0.0,67.0
Anger,stimuli/07F_AN_O.BMP,stimuli/07F_AN_O.BMP,stimuli/14F_AN_O.BMP,stimuli/EmptyFrame.bmp,stimuli/RedFrame.bmp,1,Anger,Female,3,1,1.0,288.087158203125,288.087158203125,0.0,292.0680847167969,292.0680847167969,0.0,291.0849914550781,291.0849914550781,0.0,1.0,1.0,0.0,'1',0.5030999779701233,0.5030999779701233,0.0,68.0
Anger,stimuli/40M_AN_O.BMP,stimuli/41M_AN_O.BMP,stimuli/40M_AN_O.BMP,stimuli/EmptyFrame.bmp,stimuli/RedFrame.bmp,2,Anger,Male,3,1,1.0,292.0929870605469,292.0929870605469,0.0,296.08233642578125,296.08233642578125,0.0,295.0934753417969,295.0934753417969,0.0,1.0,1.0,0.0,'2',0.5713660717010498,0.5713660717010498,0.0,69.0
Anger,stimuli/38M_AN_O.BMP,stimuli/39M_AN_O.BMP,stimuli/38M_AN_O.BMP,stimuli/EmptyFrame.bmp,stimuli/RedFrame.bmp,2,Anger,Male,3,1,1.0,296.1076354980469,296.1076354980469,0.0,300.09307861328125,300.09307861328125,0.0,299.1017150878906,299.1017150878906,0.0,1.0,1.0,0.0,'2',0.7092384099960327,0.7092384099960327,0.0,70.0
Anger,stimuli/08F_AN_O.BMP,stimuli/08F_AN_O.BMP,stimuli/13F_AN_O.BMP,stimuli/EmptyFrame.bmp,stimuli/RedFrame.bmp,1,Anger,Female,3,1,1.0,300.1214599609375,300.1214599609375,0.0,304.1047058105469,304.1047058105469,0.0,303.1231384277344,303.1231384277344,0.0,1.0,1.0,0.0,'1',0.5638245940208435,0.5638245940208435,0.0,71.0
Anger,stimuli/36M_AN_O.BMP,stimuli/37M_AN_O.BMP,stimuli/36M_AN_O.BMP,stimuli/EmptyFrame.bmp,stimuli/RedFrame.bmp,2,Anger,Male,3,1,1.0,304.1307678222656,304.1307678222656,0.0,308.1255187988281,308.1255187988281,0.0,307.1287841796875,307.1287841796875,0.0,1.0,1.0,0.0,'2',0.6078140139579773,0.6078140139579773,0.0,72.0
Anger,stimuli/09F_AN_O.BMP,stimuli/12F_AN_O.BMP,stimuli/09F_AN_O.BMP,stimuli/EmptyFrame.bmp,stimuli/RedFrame.bmp,2,Anger,Female,3,1,1.0,308.1891784667969,308.1891784667969,0.0,312.1430969238281,312.1430969238281,0.0,311.1529235839844,311.1529235839844,0.0,1.0,1.0,0.0,'2',0.6271955966949463,0.6271955966949463,0.0,73.0
Anger,stimuli/34M_AN_O.BMP,stimuli/35M_AN_O.BMP,stimuli/34M_AN_O.BMP,stimuli/EmptyFrame.bmp,stimuli/RedFrame.bmp,2,Anger,Male,3,1,1.0,312.1667175292969,312.1667175292969,0.0,316.1638488769531,316.1638488769531,0.0,315.17156982421875,315.17156982421875,0.0,1.0,1.0,0.0,'2',0.46702179312705994,0.46702179312705994,0.0,74.0
Anger,stimuli/10F_AN_O.BMP,stimuli/10F_AN_O.BMP,stimuli/11F_AN_O.BMP,stimuli/EmptyFrame.bmp,stimuli/RedFrame.bmp,1,Anger,Female,3,1,1.0,316.18768310546875,316.18768310546875,0.0,320.1815185546875,320.1815185546875,0.0,319.1877136230469,319.1877136230469,0.0,1.0,1.0,0.0,'1',0.5658218860626221,0.5658218860626221,0.0,75.0
Anger,stimuli/12F_AN_O.BMP,stimuli/12F_AN_O.BMP,stimuli/13F_AN_O.BMP,stimuli/EmptyFrame.bmp,stimuli/RedFrame.bmp,1,Anger,Female,3,1,1.0,320.2022705078125,320.2022705078125,0.0,324.20062255859375,324.20062255859375,0.0,323.208740234375,323.208740234375,0.0,1.0,1.0,0.0,'1',0.6001535058021545,0.6001535058021545,0.0,76.0
MatchFaces,stimuli/MatchFaces.bmp,stimuli/EmptyFace.bmp,stimuli/EmptyFace.bmp,stimuli/EmptyFrame.bmp,stimuli/EmptyFrame.bmp,Null,None,None,3,1,1.0,324.3332824707031,324.3332824707031,0.0,328.203369140625,328.203369140625,0.0,327.2062072753906,327.2062072753906,0.0,0.0,0.0,0.0,,,,,77.0
Happy,stimuli/20M_HA_O.BMP,stimuli/21M_HA_O.BMP,stimuli/20M_HA_O.BMP,stimuli/EmptyFrame.bmp,stimuli/RedFrame.bmp,2,Happy,Male,3,1,1.0,328.2913818359375,328.2913818359375,0.0,332.2242431640625,332.2242431640625,0.0,331.22393798828125,331.22393798828125,0.0,1.0,1.0,0.0,'2',0.7721828818321228,0.7721828818321228,0.0,78.0
Happy,stimuli/01F_HA_O.bmp,stimuli/01F_HA_O.bmp,stimuli/02F_HA_O.bmp,stimuli/EmptyFrame.bmp,stimuli/RedFrame.bmp,1,Happy,Female,3,1,1.0,332.2528076171875,332.2528076171875,0.0,336.2357482910156,336.2357482910156,0.0,335.2479553222656,335.2479553222656,0.0,1.0,1.0,0.0,'1',0.5727236866950989,0.5727236866950989,0.0,79.0
Happy,stimuli/22M_HA_O.BMP,stimuli/23M_HA_O.BMP,stimuli/22M_HA_O.BMP,stimuli/EmptyFrame.bmp,stimuli/RedFrame.bmp,2,Happy,Male,3,1,1.0,336.2622375488281,336.2622375488281,0.0,340.24468994140625,340.24468994140625,0.0,339.25531005859375,339.25531005859375,0.0,1.0,1.0,0.0,'2',1.3928166627883911,1.3928166627883911,0.0,80.0
Happy,stimuli/24M_HA_O.BMP,stimuli/24M_HA_O.BMP,stimuli/25M_HA_O.BMP,stimuli/EmptyFrame.bmp,stimuli/RedFrame.bmp,1,Happy,Male,3,1,1.0,340.26959228515625,340.26959228515625,0.0,344.2602844238281,344.2602844238281,0.0,343.2717590332031,343.2717590332031,0.0,1.0,1.0,0.0,'1',0.817507803440094,0.817507803440094,0.0,81.0
Happy,stimuli/03F_HA_O.bmp,stimuli/05F_HA_O.bmp,stimuli/03F_HA_O.bmp,stimuli/EmptyFrame.bmp,stimuli/RedFrame.bmp,2,Happy,Female,3,1,1.0,344.28863525390625,344.28863525390625,0.0,348.2701416015625,348.2701416015625,0.0,347.281494140625,347.281494140625,0.0,1.0,1.0,0.0,'2',0.5478683114051819,0.5478683114051819,0.0,82.0
Happy,stimuli/26M_HA_O.BMP,stimuli/26M_HA_O.BMP,stimuli/27M_HA_O.BMP,stimuli/EmptyFrame.bmp,stimuli/RedFrame.bmp,1,Happy,Male,3,1,1.0,348.3309631347656,348.3309631347656,0.0,352.28277587890625,352.28277587890625,0.0,351.2989501953125,351.2989501953125,0.0,1.0,1.0,0.0,'1',0.5835512280464172,0.5835512280464172,0.0,83.0
Happy,stimuli/06F_HA_O.bmp,stimuli/07F_HA_O.BMP,stimuli/06F_HA_O.bmp,stimuli/EmptyFrame.bmp,stimuli/RedFrame.bmp,2,Happy,Female,3,1,1.0,352.3087463378906,352.3087463378906,0.0,356.2948913574219,356.2948913574219,0.0,355.30908203125,355.30908203125,0.0,1.0,1.0,0.0,'2',0.5743178725242615,0.5743178725242615,0.0,84.0
Happy,stimuli/08F_HA_O.BMP,stimuli/08F_HA_O.BMP,stimuli/09F_HA_O.BMP,stimuli/EmptyFrame.bmp,stimuli/RedFrame.bmp,1,Happy,Female,3,1,1.0,356.3218994140625,356.3218994140625,0.0,360.306640625,360.306640625,0.0,359.32867431640625,359.32867431640625,0.0,1.0,1.0,0.0,'1',0.9979462027549744,0.9979462027549744,0.0,85.0
Happy,stimuli/28M_HA_O.BMP,stimuli/29M_HA_O.BMP,stimuli/28M_HA_O.BMP,stimuli/EmptyFrame.bmp,stimuli/RedFrame.bmp,2,Happy,Male,3,1,1.0,360.33416748046875,360.33416748046875,0.0,364.32489013671875,364.32489013671875,0.0,363.33612060546875,363.33612060546875,0.0,1.0,1.0,0.0,'2',0.735164999961853,0.735164999961853,0.0,86.0
Happy,stimuli/10F_HA_O.BMP,stimuli/10F_HA_O.BMP,stimuli/06F_HA_O.bmp,stimuli/EmptyFrame.bmp,stimuli/RedFrame.bmp,1,Happy,Female,3,1,1.0,364.344970703125,364.344970703125,0.0,368.3390808105469,368.3390808105469,0.0,367.3590087890625,367.3590087890625,0.0,1.0,1.0,0.0,'1',0.5729743838310242,0.5729743838310242,0.0,87.0
MatchFaces,stimuli/MatchFaces.bmp,stimuli/EmptyFace.bmp,stimuli/EmptyFace.bmp,stimuli/EmptyFrame.bmp,stimuli/EmptyFrame.bmp,Null,None,None,3,1,1.0,368.4681396484375,368.4681396484375,0.0,372.3540344238281,372.3540344238281,0.0,371.3544921875,371.3544921875,0.0,0.0,0.0,0.0,,,,,88.0
Neutral,stimuli/07F_NE_C.BMP,stimuli/07F_NE_C.BMP,stimuli/14F_NE_C.BMP,stimuli/EmptyFrame.bmp,stimuli/RedFrame.bmp,1,Neutral,Female,3,1,1.0,372.4109802246094,372.4109802246094,0.0,376.3731994628906,376.3731994628906,0.0,375.3748474121094,375.3748474121094,0.0,1.0,1.0,0.0,'1',0.6722372770309448,0.6722372770309448,0.0,89.0
Neutral,stimuli/25M_NE_C.BMP,stimuli/29M_NE_C.BMP,stimuli/25M_NE_C.BMP,stimuli/EmptyFrame.bmp,stimuli/RedFrame.bmp,2,Neutral,Male,3,1,1.0,376.3984069824219,376.3984069824219,0.0,380.3963317871094,380.3963317871094,0.0,379.406982421875,379.406982421875,0.0,1.0,1.0,0.0,'2',0.7856751084327698,0.7856751084327698,0.0,90.0
Neutral,stimuli/26M_NE_C.BMP,stimuli/26M_NE_C.BMP,stimuli/28M_NE_C.BMP,stimuli/EmptyFrame.bmp,stimuli/RedFrame.bmp,1,Neutral,Male,3,1,1.0,380.4184875488281,380.4184875488281,0.0,384.4065856933594,384.4065856933594,0.0,383.42449951171875,383.42449951171875,0.0,1.0,1.0,0.0,'1',0.5972561240196228,0.5972561240196228,0.0,91.0
Neutral,stimuli/08F_NE_C.BMP,stimuli/13F_NE_C.BMP,stimuli/08F_NE_C.BMP,stimuli/EmptyFrame.bmp,stimuli/RedFrame.bmp,2,Neutral,Female,3,1,1.0,384.43359375,384.43359375,0.0,388.42584228515625,388.42584228515625,0.0,387.4290466308594,387.4290466308594,0.0,1.0,1.0,0.0,'2',0.5323054790496826,0.5323054790496826,0.0,92.0
Neutral,stimuli/09F_NE_C.BMP,stimuli/09F_NE_C.BMP,stimuli/12F_NE_C.BMP,stimuli/EmptyFrame.bmp,stimuli/RedFrame.bmp,1,Neutral,Female,3,1,1.0,388.4508361816406,388.4508361816406,0.0,392.4336853027344,392.4336853027344,0.0,391.4558410644531,391.4558410644531,0.0,1.0,1.0,0.0,'1',0.5322375893592834,0.5322375893592834,0.0,93.0
Neutral,stimuli/27M_NE_C.BMP,stimuli/26M_NE_C.BMP,stimuli/27M_NE_C.BMP,stimuli/EmptyFrame.bmp,stimuli/RedFrame.bmp,2,Neutral,Male,3,1,1.0,392.4553527832031,392.4553527832031,0.0,396.4490661621094,396.4490661621094,0.0,395.45611572265625,395.45611572265625,0.0,1.0,1.0,0.0,'2',0.9085742831230164,0.9085742831230164,0.0,94.0
Neutral,stimuli/28M_NE_C.BMP,stimuli/28M_NE_C.BMP,stimuli/25M_NE_C.BMP,stimuli/EmptyFrame.bmp,stimuli/RedFrame.bmp,1,Neutral,Male,3,1,1.0,396.4725036621094,396.4725036621094,0.0,400.46563720703125,400.46563720703125,0.0,399.4682922363281,399.4682922363281,0.0,1.0,1.0,0.0,'1',0.66495281457901,0.66495281457901,0.0,95.0
Neutral,stimuli/10F_NE_C.BMP,stimuli/11F_NE_C.BMP,stimuli/10F_NE_C.BMP,stimuli/EmptyFrame.bmp,stimuli/RedFrame.bmp,2,Neutral,Female,3,1,1.0,400.489013671875,400.489013671875,0.0,404.4839782714844,404.4839782714844,0.0,403.4875183105469,403.4875183105469,0.0,1.0,1.0,0.0,'2',0.5124598741531372,0.5124598741531372,0.0,96.0
Neutral,stimuli/29M_NE_C.BMP,stimuli/29M_NE_C.BMP,stimuli/24M_NE_C.BMP,stimuli/EmptyFrame.bmp,stimuli/RedFrame.bmp,1,Neutral,Male,3,1,1.0,404.5068054199219,404.5068054199219,0.0,408.49432373046875,408.49432373046875,0.0,407.5108642578125,407.5108642578125,0.0,1.0,1.0,0.0,'1',0.67411869764328,0.67411869764328,0.0,97.0
Neutral,stimuli/11F_NE_C.BMP,stimuli/10F_NE_C.BMP,stimuli/11F_NE_C.BMP,stimuli/EmptyFrame.bmp,stimuli/RedFrame.bmp,2,Neutral,Female,3,1,1.0,408.5198974609375,408.5198974609375,0.0,412.5052490234375,412.5052490234375,0.0,411.523193359375,411.523193359375,0.0,1.0,1.0,0.0,'2',0.47796711325645447,0.47796711325645447,0.0,98.0
MatchFaces,stimuli/MatchFaces.bmp,stimuli/EmptyFace.bmp,stimuli/EmptyFace.bmp,stimuli/EmptyFrame.bmp,stimuli/EmptyFrame.bmp,Null,None,None,3,1,1.0,412.64398193359375,412.64398193359375,0.0,416.5144348144531,416.5144348144531,0.0,415.51983642578125,415.51983642578125,0.0,0.0,0.0,0.0,,,,,99.0
Fear,stimuli/23M_FE_O.BMP,stimuli/23M_FE_O.BMP,stimuli/24M_FE_O.BMP,stimuli/EmptyFrame.bmp,stimuli/RedFrame.bmp,1,Fear,Male,3,1,1.0,416.5966491699219,416.5966491699219,0.0,420.529541015625,420.529541015625,0.0,419.5518493652344,419.5518493652344,0.0,1.0,1.0,0.0,'1',0.6941564083099365,0.6941564083099365,0.0,100.0
Fear,stimuli/19F_FE_O.BMP,stimuli/18F_FE_O.BMP,stimuli/19F_FE_O.BMP,stimuli/EmptyFrame.bmp,stimuli/RedFrame.bmp,2,Fear,Female,3,1,1.0,420.55511474609375,420.55511474609375,0.0,424.5472106933594,424.5472106933594,0.0,423.5544128417969,423.5544128417969,0.0,1.0,1.0,0.0,'2',0.8642088174819946,0.8642088174819946,0.0,101.0
Fear,stimuli/17F_FE_O.BMP,stimuli/17F_FE_O.BMP,stimuli/16F_FE_O.BMP,stimuli/EmptyFrame.bmp,stimuli/RedFrame.bmp,1,Fear,Female,3,1,1.0,424.57305908203125,424.57305908203125,0.0,428.56048583984375,428.56048583984375,0.0,427.5715637207031,427.5715637207031,0.0,1.0,1.0,0.0,'1',0.8308668732643127,0.8308668732643127,0.0,102.0
Fear,stimuli/15F_FE_O.BMP,stimuli/18F_FE_O.BMP,stimuli/15F_FE_O.BMP,stimuli/EmptyFrame.bmp,stimuli/RedFrame.bmp,2,Fear,Female,3,1,1.0,428.5845031738281,428.5845031738281,0.0,432.571044921875,432.571044921875,0.0,431.5956115722656,431.5956115722656,0.0,1.0,1.0,0.0,'2',0.6222575902938843,0.6222575902938843,0.0,103.0
Fear,stimuli/21M_FE_O.BMP,stimuli/21M_FE_O.BMP,stimuli/22M_FE_O.BMP,stimuli/EmptyFrame.bmp,stimuli/RedFrame.bmp,1,Fear,Male,3,1,1.0,432.5970764160156,432.5970764160156,0.0,436.5809326171875,436.5809326171875,0.0,435.6033020019531,435.6033020019531,0.0,1.0,1.0,0.0,'1',0.6845632195472717,0.6845632195472717,0.0,104.0
Fear,stimuli/29M_FE_O.BMP,stimuli/30M_FE_O.BMP,stimuli/29M_FE_O.BMP,stimuli/EmptyFrame.bmp,stimuli/RedFrame.bmp,2,Fear,Male,3,1,1.0,436.6463928222656,436.6463928222656,0.0,440.5898742675781,440.5898742675781,0.0,439.6089782714844,439.6089782714844,0.0,1.0,1.0,0.0,'2',0.5155513286590576,0.5155513286590576,0.0,105.0
Fear,stimuli/31M_FE_O.BMP,stimuli/31M_FE_O.BMP,stimuli/38M_FE_O.BMP,stimuli/EmptyFrame.bmp,stimuli/RedFrame.bmp,1,Fear,Male,3,1,1.0,440.6160583496094,440.6160583496094,0.0,444.6058349609375,444.6058349609375,0.0,443.612548828125,443.612548828125,0.0,1.0,1.0,0.0,'1',0.5142912864685059,0.5142912864685059,0.0,106.0
Fear,stimuli/09F_FE_O.BMP,stimuli/07F_FE_O.BMP,stimuli/09F_FE_O.BMP,stimuli/EmptyFrame.bmp,stimuli/RedFrame.bmp,2,Fear,Female,3,1,1.0,444.631591796875,444.631591796875,0.0,448.6185607910156,448.6185607910156,0.0,447.6341247558594,447.6341247558594,0.0,1.0,1.0,0.0,'2',0.5650686025619507,0.5650686025619507,0.0,107.0
Fear,stimuli/11F_FE_O.BMP,stimuli/12F_FE_O.BMP,stimuli/11F_FE_O.BMP,stimuli/EmptyFrame.bmp,stimuli/RedFrame.bmp,2,Fear,Female,3,1,1.0,448.64044189453125,448.64044189453125,0.0,452.63458251953125,452.63458251953125,0.0,451.6496276855469,451.6496276855469,0.0,1.0,1.0,0.0,'2',0.5499932765960693,0.5499932765960693,0.0,108.0
Fear,stimuli/34M_FE_O.BMP,stimuli/34M_FE_O.BMP,stimuli/33M_FE_O.BMP,stimuli/EmptyFrame.bmp,stimuli/RedFrame.bmp,1,Fear,Male,3,1,1.0,452.66278076171875,452.66278076171875,0.0,456.6497802734375,456.6497802734375,0.0,455.6603088378906,455.6603088378906,0.0,1.0,1.0,0.0,'1',0.9496281743049622,0.9496281743049622,0.0,109.0

extraInfo
participant,sub019
session,001
date,2025_Jul_15_0913
expName,HaririTask_Ver1
psychopyVersion,3.0.1
frameRate,None
