TrialType,Top,Left,Right,EmptyFrame,SelectedFrame,Correct,Emotion,Gender,TrialLength,FixationLength,n,GCFaceStartTime_mean,GCFaceStartTime_raw,GCFaceStartTime_std,GCPostFaceFixationEndTime_mean,GCPostFaceFixationEndTime_raw,GCPostFaceFixationEndTime_std,GCPostFaceFixationStartTime_mean,GCPostFaceFixationStartTime_raw,GCPostFaceFixationStartTime_std,key_resp_trial.corr_mean,key_resp_trial.corr_raw,key_resp_trial.corr_std,key_resp_trial.keys_raw,key_resp_trial.rt_mean,key_resp_trial.rt_raw,key_resp_trial.rt_std,order
MatchFaces,stimuli/MatchFaces.bmp,stimuli/EmptyFace.bmp,stimuli/EmptyFace.bmp,stimuli/EmptyFrame.bmp,stimuli/EmptyFrame.bmp,Null,None,None,3,1,1.0,15.285890579223633,15.285890579223633,0.0,19.054563522338867,19.054563522338867,0.0,18.073129653930664,18.073129653930664,0.0,0.0,0.0,0.0,,,,,0.0
Fear,stimuli/23M_FE_O.BMP,stimuli/23M_FE_O.BMP,stimuli/24M_FE_O.BMP,stimuli/EmptyFrame.bmp,stimuli/RedFrame.bmp,1,Fear,Male,3,1,1.0,19.349571228027344,19.349571228027344,0.0,23.074180603027344,23.074180603027344,0.0,22.08130645751953,22.08130645751953,0.0,1.0,1.0,0.0,'1',1.798707365989685,1.798707365989685,0.0,1.0
Fear,stimuli/19F_FE_O.BMP,stimuli/18F_FE_O.BMP,stimuli/19F_FE_O.BMP,stimuli/EmptyFrame.bmp,stimuli/RedFrame.bmp,2,Fear,Female,3,1,1.0,23.099449157714844,23.099449157714844,0.0,27.094284057617188,27.094284057617188,0.0,26.099918365478516,26.099918365478516,0.0,1.0,1.0,0.0,'2',1.4449125528335571,1.4449125528335571,0.0,2.0
Fear,stimuli/17F_FE_O.BMP,stimuli/17F_FE_O.BMP,stimuli/16F_FE_O.BMP,stimuli/EmptyFrame.bmp,stimuli/RedFrame.bmp,1,Fear,Female,3,1,1.0,27.121129989624023,27.121129989624023,0.0,31.102846145629883,31.102846145629883,0.0,30.122140884399414,30.122140884399414,0.0,1.0,1.0,0.0,'1',1.2110399007797241,1.2110399007797241,0.0,3.0
Fear,stimuli/21M_FE_O.BMP,stimuli/21M_FE_O.BMP,stimuli/22M_FE_O.BMP,stimuli/EmptyFrame.bmp,stimuli/RedFrame.bmp,1,Fear,Male,3,1,1.0,31.128589630126953,31.128589630126953,0.0,35.11733627319336,35.11733627319336,0.0,34.133907318115234,34.133907318115234,0.0,1.0,1.0,0.0,'1',1.153770089149475,1.153770089149475,0.0,4.0
Fear,stimuli/09F_FE_O.BMP,stimuli/07F_FE_O.BMP,stimuli/09F_FE_O.BMP,stimuli/EmptyFrame.bmp,stimuli/RedFrame.bmp,2,Fear,Female,3,1,1.0,35.17937469482422,35.17937469482422,0.0,39.13398742675781,39.13398742675781,0.0,38.14641571044922,38.14641571044922,0.0,1.0,1.0,0.0,'2',0.9697415232658386,0.9697415232658386,0.0,5.0
Fear,stimuli/08F_FE_O.BMP,stimuli/13F_FE_O.BMP,stimuli/08F_FE_O.BMP,stimuli/EmptyFrame.bmp,stimuli/RedFrame.bmp,2,Fear,Female,3,1,1.0,39.16214370727539,39.16214370727539,0.0,43.14311218261719,43.14311218261719,0.0,42.15995407104492,42.15995407104492,0.0,1.0,1.0,0.0,'2',0.9932588934898376,0.9932588934898376,0.0,6.0
Fear,stimuli/07F_FE_O.BMP,stimuli/07F_FE_O.BMP,stimuli/14F_FE_O.BMP,stimuli/EmptyFrame.bmp,stimuli/RedFrame.bmp,1,Fear,Female,3,1,1.0,43.166072845458984,43.166072845458984,0.0,47.156349182128906,47.156349182128906,0.0,46.16914749145508,46.16914749145508,0.0,1.0,1.0,0.0,'1',1.054497480392456,1.054497480392456,0.0,7.0
Fear,stimuli/26M_FE_O.BMP,stimuli/26M_FE_O.BMP,stimuli/28M_FE_O.BMP,stimuli/EmptyFrame.bmp,stimuli/RedFrame.bmp,1,Fear,Male,3,1,1.0,47.185367584228516,47.185367584228516,0.0,51.17182540893555,51.17182540893555,0.0,50.19007873535156,50.19007873535156,0.0,1.0,1.0,0.0,'1',0.8172234296798706,0.8172234296798706,0.0,8.0
Fear,stimuli/10F_FE_O.BMP,stimuli/11F_FE_O.BMP,stimuli/10F_FE_O.BMP,stimuli/EmptyFrame.bmp,stimuli/RedFrame.bmp,2,Fear,Female,3,1,1.0,51.20237731933594,51.20237731933594,0.0,55.19390106201172,55.19390106201172,0.0,54.207183837890625,54.207183837890625,0.0,1.0,1.0,0.0,'2',0.767445981502533,0.767445981502533,0.0,9.0
Fear,stimuli/29M_FE_O.BMP,stimuli/30M_FE_O.BMP,stimuli/29M_FE_O.BMP,stimuli/EmptyFrame.bmp,stimuli/RedFrame.bmp,2,Fear,Male,3,1,1.0,55.22015380859375,55.22015380859375,0.0,59.2070198059082,59.2070198059082,0.0,58.219669342041016,58.219669342041016,0.0,1.0,1.0,0.0,'2',0.9631212949752808,0.9631212949752808,0.0,10.0
MatchFaces,stimuli/MatchFaces.bmp,stimuli/EmptyFace.bmp,stimuli/EmptyFace.bmp,stimuli/EmptyFrame.bmp,stimuli/EmptyFrame.bmp,Null,None,None,3,1,1.0,59.385074615478516,59.385074615478516,0.0,63.22359848022461,63.22359848022461,0.0,62.22080993652344,62.22080993652344,0.0,0.0,0.0,0.0,,,,,11.0
Neutral,stimuli/07F_NE_C.BMP,stimuli/07F_NE_C.BMP,stimuli/14F_NE_C.BMP,stimuli/EmptyFrame.bmp,stimuli/RedFrame.bmp,1,Neutral,Female,3,1,1.0,63.30816650390625,63.30816650390625,0.0,67.237548828125,67.237548828125,0.0,66.25814819335938,66.25814819335938,0.0,1.0,1.0,0.0,'1',0.8936184048652649,0.8936184048652649,0.0,12.0
Neutral,stimuli/25M_NE_C.BMP,stimuli/29M_NE_C.BMP,stimuli/25M_NE_C.BMP,stimuli/EmptyFrame.bmp,stimuli/RedFrame.bmp,2,Neutral,Male,3,1,1.0,67.26528930664062,67.26528930664062,0.0,71.25377655029297,71.25377655029297,0.0,70.26300048828125,70.26300048828125,0.0,1.0,1.0,0.0,'2',1.1007670164108276,1.1007670164108276,0.0,13.0
Neutral,stimuli/26M_NE_C.BMP,stimuli/26M_NE_C.BMP,stimuli/28M_NE_C.BMP,stimuli/EmptyFrame.bmp,stimuli/RedFrame.bmp,1,Neutral,Male,3,1,1.0,71.28103637695312,71.28103637695312,0.0,75.27113342285156,75.27113342285156,0.0,74.27930450439453,74.27930450439453,0.0,1.0,1.0,0.0,'1',0.6844758987426758,0.6844758987426758,0.0,14.0
Neutral,stimuli/08F_NE_C.BMP,stimuli/13F_NE_C.BMP,stimuli/08F_NE_C.BMP,stimuli/EmptyFrame.bmp,stimuli/RedFrame.bmp,2,Neutral,Female,3,1,1.0,75.30023193359375,75.30023193359375,0.0,79.28291320800781,79.28291320800781,0.0,78.30017852783203,78.30017852783203,0.0,1.0,1.0,0.0,'2',0.7354335784912109,0.7354335784912109,0.0,15.0
Neutral,stimuli/09F_NE_C.BMP,stimuli/09F_NE_C.BMP,stimuli/12F_NE_C.BMP,stimuli/EmptyFrame.bmp,stimuli/RedFrame.bmp,1,Neutral,Female,3,1,1.0,79.30903625488281,79.30903625488281,0.0,83.30253601074219,83.30253601074219,0.0,82.31039428710938,82.31039428710938,0.0,1.0,1.0,0.0,'1',0.6720793843269348,0.6720793843269348,0.0,16.0
Neutral,stimuli/27M_NE_C.BMP,stimuli/26M_NE_C.BMP,stimuli/27M_NE_C.BMP,stimuli/EmptyFrame.bmp,stimuli/RedFrame.bmp,2,Neutral,Male,3,1,1.0,83.32852172851562,83.32852172851562,0.0,87.3258056640625,87.3258056640625,0.0,86.32738494873047,86.32738494873047,0.0,1.0,1.0,0.0,'2',0.9250245094299316,0.9250245094299316,0.0,17.0
Neutral,stimuli/28M_NE_C.BMP,stimuli/28M_NE_C.BMP,stimuli/25M_NE_C.BMP,stimuli/EmptyFrame.bmp,stimuli/RedFrame.bmp,1,Neutral,Male,3,1,1.0,87.35001373291016,87.35001373291016,0.0,91.3342056274414,91.3342056274414,0.0,90.35258483886719,90.35258483886719,0.0,1.0,1.0,0.0,'1',1.03391695022583,1.03391695022583,0.0,18.0
Neutral,stimuli/10F_NE_C.BMP,stimuli/11F_NE_C.BMP,stimuli/10F_NE_C.BMP,stimuli/EmptyFrame.bmp,stimuli/RedFrame.bmp,2,Neutral,Female,3,1,1.0,91.36099243164062,91.36099243164062,0.0,95.34846496582031,95.34846496582031,0.0,94.35618591308594,94.35618591308594,0.0,1.0,1.0,0.0,'2',0.7283325791358948,0.7283325791358948,0.0,19.0
Neutral,stimuli/29M_NE_C.BMP,stimuli/29M_NE_C.BMP,stimuli/24M_NE_C.BMP,stimuli/EmptyFrame.bmp,stimuli/RedFrame.bmp,1,Neutral,Male,3,1,1.0,95.37356567382812,95.37356567382812,0.0,99.364990234375,99.364990234375,0.0,98.37667083740234,98.37667083740234,0.0,1.0,1.0,0.0,'1',0.7948325872421265,0.7948325872421265,0.0,20.0
Neutral,stimuli/11F_NE_C.BMP,stimuli/10F_NE_C.BMP,stimuli/11F_NE_C.BMP,stimuli/EmptyFrame.bmp,stimuli/RedFrame.bmp,2,Neutral,Female,3,1,1.0,99.38600158691406,99.38600158691406,0.0,103.38280487060547,103.38280487060547,0.0,102.38957214355469,102.38957214355469,0.0,1.0,1.0,0.0,'2',0.8871819972991943,0.8871819972991943,0.0,21.0
MatchShape,stimuli/MatchShapes.bmp,stimuli/EmptyFace.bmp,stimuli/EmptyFace.bmp,stimuli/EmptyFrame.bmp,stimuli/EmptyFrame.bmp,Null,None,None,3,1,1.0,103.41726684570312,103.41726684570312,0.0,107.39312744140625,107.39312744140625,0.0,106.38983154296875,106.38983154296875,0.0,0.0,0.0,0.0,,,,,22.0
Shape,stimuli/circle.bmp,stimuli/vertical.bmp,stimuli/circle.bmp,stimuli/EmptyFrame.bmp,stimuli/RedFrame.bmp,2,Shape,None,3,1,1.0,107.43071746826172,107.43071746826172,0.0,111.4049072265625,111.4049072265625,0.0,110.41974639892578,110.41974639892578,0.0,1.0,1.0,0.0,'2',0.7659981846809387,0.7659981846809387,0.0,23.0
Shape,stimuli/horizontal.bmp,stimuli/circle.bmp,stimuli/horizontal.bmp,stimuli/EmptyFrame.bmp,stimuli/RedFrame.bmp,2,Shape,None,3,1,1.0,111.42915344238281,111.42915344238281,0.0,115.42008209228516,115.42008209228516,0.0,114.42630767822266,114.42630767822266,0.0,1.0,1.0,0.0,'2',0.6559680104255676,0.6559680104255676,0.0,24.0
Shape,stimuli/circle.bmp,stimuli/vertical.bmp,stimuli/circle.bmp,stimuli/EmptyFrame.bmp,stimuli/RedFrame.bmp,2,Shape,None,3,1,1.0,115.4399185180664,115.4399185180664,0.0,119.43360900878906,119.43360900878906,0.0,118.44556427001953,118.44556427001953,0.0,1.0,1.0,0.0,'2',0.761782705783844,0.761782705783844,0.0,25.0
Shape,stimuli/vertical.bmp,stimuli/circle.bmp,stimuli/vertical.bmp,stimuli/EmptyFrame.bmp,stimuli/RedFrame.bmp,2,Shape,None,3,1,1.0,119.45564270019531,119.45564270019531,0.0,123.45384216308594,123.45384216308594,0.0,122.45808410644531,122.45808410644531,0.0,1.0,1.0,0.0,'2',0.779486894607544,0.779486894607544,0.0,26.0
Shape,stimuli/vertical.bmp,stimuli/horizontal.bmp,stimuli/vertical.bmp,stimuli/EmptyFrame.bmp,stimuli/RedFrame.bmp,2,Shape,None,3,1,1.0,123.4756851196289,123.4756851196289,0.0,127.4697036743164,127.4697036743164,0.0,126.47985076904297,126.47985076904297,0.0,1.0,1.0,0.0,'2',0.9453942179679871,0.9453942179679871,0.0,27.0
Shape,stimuli/horizontal.bmp,stimuli/horizontal.bmp,stimuli/vertical.bmp,stimuli/EmptyFrame.bmp,stimuli/RedFrame.bmp,1,Shape,None,3,1,1.0,127.49299621582031,127.49299621582031,0.0,131.49050903320312,131.49050903320312,0.0,130.49951171875,130.49951171875,0.0,1.0,1.0,0.0,'1',1.0233862400054932,1.0233862400054932,0.0,28.0
Shape,stimuli/horizontal.bmp,stimuli/circle.bmp,stimuli/horizontal.bmp,stimuli/EmptyFrame.bmp,stimuli/RedFrame.bmp,2,Shape,None,3,1,1.0,131.5127716064453,131.5127716064453,0.0,135.50228881835938,135.50228881835938,0.0,134.51828002929688,134.51828002929688,0.0,1.0,1.0,0.0,'2',0.7568185925483704,0.7568185925483704,0.0,29.0
Shape,stimuli/circle.bmp,stimuli/circle.bmp,stimuli/vertical.bmp,stimuli/EmptyFrame.bmp,stimuli/RedFrame.bmp,1,Shape,None,3,1,1.0,135.5218048095703,135.5218048095703,0.0,139.52146911621094,139.52146911621094,0.0,138.5219268798828,138.5219268798828,0.0,1.0,1.0,0.0,'1',0.7712035179138184,0.7712035179138184,0.0,30.0
Shape,stimuli/vertical.bmp,stimuli/horizontal.bmp,stimuli/vertical.bmp,stimuli/EmptyFrame.bmp,stimuli/RedFrame.bmp,2,Shape,None,3,1,1.0,139.542236328125,139.542236328125,0.0,143.53529357910156,143.53529357910156,0.0,142.54153442382812,142.54153442382812,0.0,1.0,1.0,0.0,'2',0.9616093039512634,0.9616093039512634,0.0,31.0
Shape,stimuli/vertical.bmp,stimuli/vertical.bmp,stimuli/horizontal.bmp,stimuli/EmptyFrame.bmp,stimuli/RedFrame.bmp,1,Shape,None,3,1,1.0,143.55665588378906,143.55665588378906,0.0,147.55056762695312,147.55056762695312,0.0,146.5584259033203,146.5584259033203,0.0,1.0,1.0,0.0,'1',0.8412129878997803,0.8412129878997803,0.0,32.0
MatchFaces,stimuli/MatchFaces.bmp,stimuli/EmptyFace.bmp,stimuli/EmptyFace.bmp,stimuli/EmptyFrame.bmp,stimuli/EmptyFrame.bmp,Null,None,None,3,1,1.0,147.74473571777344,147.74473571777344,0.0,151.56414794921875,151.56414794921875,0.0,150.56723022460938,150.56723022460938,0.0,0.0,0.0,0.0,,,,,33.0
Anger,stimuli/20M_AN_O.BMP,stimuli/34M_AN_O.BMP,stimuli/20M_AN_O.BMP,stimuli/EmptyFrame.bmp,stimuli/RedFrame.bmp,2,Anger,Male,3,1,1.0,151.670166015625,151.670166015625,0.0,155.58462524414062,155.58462524414062,0.0,154.59384155273438,154.59384155273438,0.0,1.0,1.0,0.0,'2',0.9850506782531738,0.9850506782531738,0.0,34.0
Anger,stimuli/01F_AN_O.bmp,stimuli/19F_AN_O.BMP,stimuli/01F_AN_O.bmp,stimuli/EmptyFrame.bmp,stimuli/RedFrame.bmp,2,Anger,Female,3,1,1.0,155.61380004882812,155.61380004882812,0.0,159.60386657714844,159.60386657714844,0.0,158.61328125,158.61328125,0.0,1.0,1.0,0.0,'2',0.8907274007797241,0.8907274007797241,0.0,35.0
Anger,stimuli/06F_AN_O.bmp,stimuli/15F_AN_O.BMP,stimuli/06F_AN_O.bmp,stimuli/EmptyFrame.bmp,stimuli/RedFrame.bmp,2,Anger,Female,3,1,1.0,159.63304138183594,159.63304138183594,0.0,163.62066650390625,163.62066650390625,0.0,162.6302490234375,162.6302490234375,0.0,1.0,1.0,0.0,'2',0.9091799855232239,0.9091799855232239,0.0,36.0
Anger,stimuli/42M_AN_O.BMP,stimuli/42M_AN_O.BMP,stimuli/43M_AN_O.BMP,stimuli/EmptyFrame.bmp,stimuli/RedFrame.bmp,1,Anger,Male,3,1,1.0,163.6483612060547,163.6483612060547,0.0,167.63021850585938,167.63021850585938,0.0,166.64768981933594,166.64768981933594,0.0,1.0,1.0,0.0,'1',0.89117830991745,0.89117830991745,0.0,37.0
Anger,stimuli/40M_AN_O.BMP,stimuli/41M_AN_O.BMP,stimuli/40M_AN_O.BMP,stimuli/EmptyFrame.bmp,stimuli/RedFrame.bmp,2,Anger,Male,3,1,1.0,167.65823364257812,167.65823364257812,0.0,171.64918518066406,171.64918518066406,0.0,170.6539306640625,170.6539306640625,0.0,1.0,1.0,0.0,'2',0.8321319818496704,0.8321319818496704,0.0,38.0
Anger,stimuli/08F_AN_O.BMP,stimuli/08F_AN_O.BMP,stimuli/13F_AN_O.BMP,stimuli/EmptyFrame.bmp,stimuli/RedFrame.bmp,1,Anger,Female,3,1,1.0,171.67430114746094,171.67430114746094,0.0,175.6631317138672,175.6631317138672,0.0,174.68014526367188,174.68014526367188,0.0,1.0,1.0,0.0,'1',0.9968963861465454,0.9968963861465454,0.0,39.0
Anger,stimuli/09F_AN_O.BMP,stimuli/12F_AN_O.BMP,stimuli/09F_AN_O.BMP,stimuli/EmptyFrame.bmp,stimuli/RedFrame.bmp,2,Anger,Female,3,1,1.0,175.69020080566406,175.69020080566406,0.0,179.67564392089844,179.67564392089844,0.0,178.69189453125,178.69189453125,0.0,1.0,1.0,0.0,'2',0.8163915872573853,0.8163915872573853,0.0,40.0
Anger,stimuli/34M_AN_O.BMP,stimuli/35M_AN_O.BMP,stimuli/34M_AN_O.BMP,stimuli/EmptyFrame.bmp,stimuli/RedFrame.bmp,2,Anger,Male,3,1,1.0,179.70123291015625,179.70123291015625,0.0,183.69482421875,183.69482421875,0.0,182.69488525390625,182.69488525390625,0.0,1.0,1.0,0.0,'2',0.9196643829345703,0.9196643829345703,0.0,41.0
Anger,stimuli/24M_AN_O.BMP,stimuli/24M_AN_O.BMP,stimuli/30M_AN_O.BMP,stimuli/EmptyFrame.bmp,stimuli/RedFrame.bmp,1,Anger,Male,3,1,1.0,183.7183837890625,183.7183837890625,0.0,187.7144775390625,187.7144775390625,0.0,186.72064208984375,186.72064208984375,0.0,1.0,1.0,0.0,'1',0.9495955109596252,0.9495955109596252,0.0,42.0
Anger,stimuli/03F_AN_O.bmp,stimuli/03F_AN_O.bmp,stimuli/17F_AN_O.BMP,stimuli/EmptyFrame.bmp,stimuli/RedFrame.bmp,1,Anger,Female,3,1,1.0,187.74038696289062,187.74038696289062,0.0,191.73211669921875,191.73211669921875,0.0,190.7330780029297,190.7330780029297,0.0,1.0,1.0,0.0,'1',0.8537272810935974,0.8537272810935974,0.0,43.0
MatchFaces,stimuli/MatchFaces.bmp,stimuli/EmptyFace.bmp,stimuli/EmptyFace.bmp,stimuli/EmptyFrame.bmp,stimuli/EmptyFrame.bmp,Null,None,None,3,1,1.0,191.9915771484375,191.9915771484375,0.0,195.73455810546875,195.73455810546875,0.0,194.74623107910156,194.74623107910156,0.0,0.0,0.0,0.0,,,,,44.0
Happy,stimuli/06F_HA_O.bmp,stimuli/07F_HA_O.BMP,stimuli/06F_HA_O.bmp,stimuli/EmptyFrame.bmp,stimuli/RedFrame.bmp,2,Happy,Female,3,1,1.0,195.8124542236328,195.8124542236328,0.0,199.75833129882812,199.75833129882812,0.0,198.75648498535156,198.75648498535156,0.0,1.0,1.0,0.0,'2',0.971271812915802,0.971271812915802,0.0,45.0
Happy,stimuli/13F_HA_O.BMP,stimuli/13F_HA_O.BMP,stimuli/12F_HA_O.BMP,stimuli/EmptyFrame.bmp,stimuli/RedFrame.bmp,1,Happy,Female,3,1,1.0,199.7856903076172,199.7856903076172,0.0,203.77703857421875,203.77703857421875,0.0,202.7835235595703,202.7835235595703,0.0,1.0,1.0,0.0,'1',0.7974777817726135,0.7974777817726135,0.0,46.0
Happy,stimuli/41M_HA_O.BMP,stimuli/41M_HA_O.BMP,stimuli/40M_HA_O.BMP,stimuli/EmptyFrame.bmp,stimuli/RedFrame.bmp,1,Happy,Male,3,1,1.0,203.8035125732422,203.8035125732422,0.0,207.79200744628906,207.79200744628906,0.0,206.80833435058594,206.80833435058594,0.0,1.0,1.0,0.0,'1',0.7972410917282104,0.7972410917282104,0.0,47.0
Happy,stimuli/03F_HA_O.bmp,stimuli/05F_HA_O.bmp,stimuli/03F_HA_O.bmp,stimuli/EmptyFrame.bmp,stimuli/RedFrame.bmp,2,Happy,Female,3,1,1.0,207.81900024414062,207.81900024414062,0.0,211.8107452392578,211.8107452392578,0.0,210.81863403320312,210.81863403320312,0.0,1.0,1.0,0.0,'2',0.8767439126968384,0.8767439126968384,0.0,48.0
Happy,stimuli/24M_HA_O.BMP,stimuli/24M_HA_O.BMP,stimuli/25M_HA_O.BMP,stimuli/EmptyFrame.bmp,stimuli/RedFrame.bmp,1,Happy,Male,3,1,1.0,211.83624267578125,211.83624267578125,0.0,215.82745361328125,215.82745361328125,0.0,214.83279418945312,214.83279418945312,0.0,1.0,1.0,0.0,'1',0.8170602917671204,0.8170602917671204,0.0,49.0
Happy,stimuli/19F_HA_O.BMP,stimuli/19F_HA_O.BMP,stimuli/18F_HA_O.BMP,stimuli/EmptyFrame.bmp,stimuli/RedFrame.bmp,1,Happy,Female,3,1,1.0,215.85231018066406,215.85231018066406,0.0,219.84205627441406,219.84205627441406,0.0,218.8499298095703,218.8499298095703,0.0,1.0,1.0,0.0,'1',0.7585024833679199,0.7585024833679199,0.0,50.0
Happy,stimuli/01F_HA_O.bmp,stimuli/01F_HA_O.bmp,stimuli/02F_HA_O.bmp,stimuli/EmptyFrame.bmp,stimuli/RedFrame.bmp,1,Happy,Female,3,1,1.0,219.8703155517578,219.8703155517578,0.0,223.85137939453125,223.85137939453125,0.0,222.87081909179688,222.87081909179688,0.0,1.0,1.0,0.0,'1',0.6617987155914307,0.6617987155914307,0.0,51.0
Happy,stimuli/22M_HA_O.BMP,stimuli/23M_HA_O.BMP,stimuli/22M_HA_O.BMP,stimuli/EmptyFrame.bmp,stimuli/RedFrame.bmp,2,Happy,Male,3,1,1.0,223.88502502441406,223.88502502441406,0.0,227.87628173828125,227.87628173828125,0.0,226.88072204589844,226.88072204589844,0.0,1.0,1.0,0.0,'2',0.953621506690979,0.953621506690979,0.0,52.0
Happy,stimuli/35M_HA_O.BMP,stimuli/34M_HA_O.BMP,stimuli/35M_HA_O.BMP,stimuli/EmptyFrame.bmp,stimuli/RedFrame.bmp,2,Happy,Male,3,1,1.0,227.90249633789062,227.90249633789062,0.0,231.89161682128906,231.89161682128906,0.0,230.90066528320312,230.90066528320312,0.0,1.0,1.0,0.0,'2',1.2458014488220215,1.2458014488220215,0.0,53.0
Happy,stimuli/39M_HA_O.BMP,stimuli/38M_HA_O.BMP,stimuli/39M_HA_O.BMP,stimuli/EmptyFrame.bmp,stimuli/RedFrame.bmp,2,Happy,Male,3,1,1.0,231.9194793701172,231.9194793701172,0.0,235.9061737060547,235.9061737060547,0.0,234.91722106933594,234.91722106933594,0.0,1.0,1.0,0.0,'2',0.9392721056938171,0.9392721056938171,0.0,54.0
Match Shape,stimuli/MatchShapes.bmp,stimuli/EmptyFace.bmp,stimuli/EmptyFace.bmp,stimuli/EmptyFrame.bmp,stimuli/EmptyFrame.bmp,Null,None,None,3,1,1.0,235.92733764648438,235.92733764648438,0.0,239.9130401611328,239.9130401611328,0.0,238.91741943359375,238.91741943359375,0.0,0.0,0.0,0.0,,,,,55.0
Shape,stimuli/horizontal.bmp,stimuli/horizontal.bmp,stimuli/vertical.bmp,stimuli/EmptyFrame.bmp,stimuli/RedFrame.bmp,1,Shape,None,3,1,1.0,239.9473876953125,239.9473876953125,0.0,243.9256134033203,243.9256134033203,0.0,242.93734741210938,242.93734741210938,0.0,1.0,1.0,0.0,'1',1.122056484222412,1.122056484222412,0.0,56.0
Shape,stimuli/horizontal.bmp,stimuli/horizontal.bmp,stimuli/circle.bmp,stimuli/EmptyFrame.bmp,stimuli/RedFrame.bmp,1,Shape,None,3,1,1.0,243.9462127685547,243.9462127685547,0.0,247.94619750976562,247.94619750976562,0.0,246.95123291015625,246.95123291015625,0.0,1.0,1.0,0.0,'1',0.6555988192558289,0.6555988192558289,0.0,57.0
Shape,stimuli/circle.bmp,stimuli/vertical.bmp,stimuli/circle.bmp,stimuli/EmptyFrame.bmp,stimuli/RedFrame.bmp,2,Shape,None,3,1,1.0,247.96759033203125,247.96759033203125,0.0,251.9623565673828,251.9623565673828,0.0,250.97299194335938,250.97299194335938,0.0,1.0,1.0,0.0,'2',0.8276370167732239,0.8276370167732239,0.0,58.0
Shape,stimuli/vertical.bmp,stimuli/vertical.bmp,stimuli/circle.bmp,stimuli/EmptyFrame.bmp,stimuli/RedFrame.bmp,1,Shape,None,3,1,1.0,251.97946166992188,251.97946166992188,0.0,255.97703552246094,255.97703552246094,0.0,254.98741149902344,254.98741149902344,0.0,1.0,1.0,0.0,'1',0.6523734927177429,0.6523734927177429,0.0,59.0
Shape,stimuli/horizontal.bmp,stimuli/horizontal.bmp,stimuli/circle.bmp,stimuli/EmptyFrame.bmp,stimuli/RedFrame.bmp,1,Shape,None,3,1,1.0,255.99807739257812,255.99807739257812,0.0,259.9930419921875,259.9930419921875,0.0,258.9989318847656,258.9989318847656,0.0,1.0,1.0,0.0,'1',0.7064648866653442,0.7064648866653442,0.0,60.0
Shape,stimuli/vertical.bmp,stimuli/vertical.bmp,stimuli/circle.bmp,stimuli/EmptyFrame.bmp,stimuli/RedFrame.bmp,1,Shape,None,3,1,1.0,260.0155029296875,260.0155029296875,0.0,264.0020751953125,264.0020751953125,0.0,263.0178527832031,263.0178527832031,0.0,1.0,1.0,0.0,'1',0.721878170967102,0.721878170967102,0.0,61.0
Shape,stimuli/horizontal.bmp,stimuli/circle.bmp,stimuli/horizontal.bmp,stimuli/EmptyFrame.bmp,stimuli/RedFrame.bmp,2,Shape,None,3,1,1.0,264.0246887207031,264.0246887207031,0.0,268.0138854980469,268.0138854980469,0.0,267.0227966308594,267.0227966308594,0.0,1.0,1.0,0.0,'2',0.5634307861328125,0.5634307861328125,0.0,62.0
Shape,stimuli/circle.bmp,stimuli/circle.bmp,stimuli/horizontal.bmp,stimuli/EmptyFrame.bmp,stimuli/RedFrame.bmp,1,Shape,None,3,1,1.0,268.03668212890625,268.03668212890625,0.0,272.0264587402344,272.0264587402344,0.0,271.03875732421875,271.03875732421875,0.0,1.0,1.0,0.0,'1',0.6294565796852112,0.6294565796852112,0.0,63.0
Shape,stimuli/circle.bmp,stimuli/horizontal.bmp,stimuli/circle.bmp,stimuli/EmptyFrame.bmp,stimuli/RedFrame.bmp,2,Shape,None,3,1,1.0,272.0494079589844,272.0494079589844,0.0,276.04473876953125,276.04473876953125,0.0,275.0516052246094,275.0516052246094,0.0,1.0,1.0,0.0,'2',0.8145484924316406,0.8145484924316406,0.0,64.0
Shape,stimuli/vertical.bmp,stimuli/vertical.bmp,stimuli/horizontal.bmp,stimuli/EmptyFrame.bmp,stimuli/RedFrame.bmp,1,Shape,None,3,1,1.0,276.06988525390625,276.06988525390625,0.0,280.05908203125,280.05908203125,0.0,279.06732177734375,279.06732177734375,0.0,1.0,1.0,0.0,'1',0.8689696192741394,0.8689696192741394,0.0,65.0
MatchFaces,stimuli/MatchFaces.bmp,stimuli/EmptyFace.bmp,stimuli/EmptyFace.bmp,stimuli/EmptyFrame.bmp,stimuli/EmptyFrame.bmp,Null,None,None,3,1,1.0,280.26025390625,280.26025390625,0.0,284.0661315917969,284.0661315917969,0.0,283.071044921875,283.071044921875,0.0,0.0,0.0,0.0,,,,,66.0
Neutral,stimuli/20M_NE_C.BMP,stimuli/21M_NE_C.BMP,stimuli/20M_NE_C.BMP,stimuli/EmptyFrame.bmp,stimuli/RedFrame.bmp,2,Neutral,Male,3,1,1.0,284.1656494140625,284.1656494140625,0.0,288.0837097167969,288.0837097167969,0.0,287.0888366699219,287.0888366699219,0.0,1.0,1.0,0.0,'2',0.7190917134284973,0.7190917134284973,0.0,67.0
Neutral,stimuli/01F_NE_C.bmp,stimuli/01F_NE_C.bmp,stimuli/02F_NE_C.bmp,stimuli/EmptyFrame.bmp,stimuli/RedFrame.bmp,1,Neutral,Female,3,1,1.0,288.1145935058594,288.1145935058594,0.0,292.0987243652344,292.0987243652344,0.0,291.1067199707031,291.1067199707031,0.0,1.0,1.0,0.0,'1',0.8847270011901855,0.8847270011901855,0.0,68.0
Neutral,stimuli/22M_NE_C.BMP,stimuli/23M_NE_C.BMP,stimuli/22M_NE_C.BMP,stimuli/EmptyFrame.bmp,stimuli/RedFrame.bmp,2,Neutral,Male,3,1,1.0,292.12701416015625,292.12701416015625,0.0,296.11724853515625,296.11724853515625,0.0,295.12347412109375,295.12347412109375,0.0,1.0,1.0,0.0,'2',0.6856138706207275,0.6856138706207275,0.0,69.0
Neutral,stimuli/24M_NE_C.BMP,stimuli/24M_NE_C.BMP,stimuli/25M_NE_C.BMP,stimuli/EmptyFrame.bmp,stimuli/RedFrame.bmp,1,Neutral,Male,3,1,1.0,296.138427734375,296.138427734375,0.0,300.12994384765625,300.12994384765625,0.0,299.138916015625,299.138916015625,0.0,1.0,1.0,0.0,'1',1.2295012474060059,1.2295012474060059,0.0,70.0
Neutral,stimuli/03F_NE_C.bmp,stimuli/05F_NE_C.bmp,stimuli/03F_NE_C.bmp,stimuli/EmptyFrame.bmp,stimuli/RedFrame.bmp,2,Neutral,Female,3,1,1.0,300.15655517578125,300.15655517578125,0.0,304.1396179199219,304.1396179199219,0.0,303.1507263183594,303.1507263183594,0.0,1.0,1.0,0.0,'2',0.8775848150253296,0.8775848150253296,0.0,71.0
Neutral,stimuli/26M_NE_C.BMP,stimuli/26M_NE_C.BMP,stimuli/27M_NE_C.BMP,stimuli/EmptyFrame.bmp,stimuli/RedFrame.bmp,1,Neutral,Male,3,1,1.0,304.1596984863281,304.1596984863281,0.0,308.15081787109375,308.15081787109375,0.0,307.1587219238281,307.1587219238281,0.0,1.0,1.0,0.0,'1',0.6557099223136902,0.6557099223136902,0.0,72.0
Neutral,stimuli/06F_NE_C.bmp,stimuli/07F_NE_C.BMP,stimuli/06F_NE_C.bmp,stimuli/EmptyFrame.bmp,stimuli/RedFrame.bmp,2,Neutral,Female,3,1,1.0,308.1784973144531,308.1784973144531,0.0,312.1632385253906,312.1632385253906,0.0,311.1795959472656,311.1795959472656,0.0,1.0,1.0,0.0,'2',0.776698112487793,0.776698112487793,0.0,73.0
Neutral,stimuli/08F_NE_C.BMP,stimuli/08F_NE_C.BMP,stimuli/09F_NE_C.BMP,stimuli/EmptyFrame.bmp,stimuli/RedFrame.bmp,1,Neutral,Female,3,1,1.0,312.1863708496094,312.1863708496094,0.0,316.1739196777344,316.1739196777344,0.0,315.19140625,315.19140625,0.0,1.0,1.0,0.0,'1',0.7558475732803345,0.7558475732803345,0.0,74.0
Neutral,stimuli/28M_NE_C.BMP,stimuli/29M_NE_C.BMP,stimuli/28M_NE_C.BMP,stimuli/EmptyFrame.bmp,stimuli/RedFrame.bmp,2,Neutral,Male,3,1,1.0,316.1961975097656,316.1961975097656,0.0,320.1865539550781,320.1865539550781,0.0,319.2074890136719,319.2074890136719,0.0,1.0,1.0,0.0,'2',0.7213540077209473,0.7213540077209473,0.0,75.0
Neutral,stimuli/10F_NE_C.BMP,stimuli/10F_NE_C.BMP,stimuli/06F_NE_C.bmp,stimuli/EmptyFrame.bmp,stimuli/RedFrame.bmp,1,Neutral,Female,3,1,1.0,320.208251953125,320.208251953125,0.0,324.2022399902344,324.2022399902344,0.0,323.22308349609375,323.22308349609375,0.0,1.0,1.0,0.0,'1',0.6912178993225098,0.6912178993225098,0.0,76.0
MatchFaces,stimuli/MatchFaces.bmp,stimuli/EmptyFace.bmp,stimuli/EmptyFace.bmp,stimuli/EmptyFrame.bmp,stimuli/EmptyFrame.bmp,Null,None,None,3,1,1.0,324.4167175292969,324.4167175292969,0.0,328.2132263183594,328.2132263183594,0.0,327.21942138671875,327.21942138671875,0.0,0.0,0.0,0.0,,,,,77.0
Happy,stimuli/28M_HA_O.BMP,stimuli/29M_HA_O.BMP,stimuli/28M_HA_O.BMP,stimuli/EmptyFrame.bmp,stimuli/RedFrame.bmp,2,Happy,Male,3,1,1.0,328.32586669921875,328.32586669921875,0.0,332.2259216308594,332.2259216308594,0.0,331.2391662597656,331.2391662597656,0.0,1.0,1.0,0.0,'2',1.0121469497680664,1.0121469497680664,0.0,78.0
Happy,stimuli/10F_HA_O.BMP,stimuli/10F_HA_O.BMP,stimuli/06F_HA_O.bmp,stimuli/EmptyFrame.bmp,stimuli/RedFrame.bmp,1,Happy,Female,3,1,1.0,332.2496643066406,332.2496643066406,0.0,336.2431945800781,336.2431945800781,0.0,335.2579345703125,335.2579345703125,0.0,1.0,1.0,0.0,'1',0.5816403031349182,0.5816403031349182,0.0,79.0
Happy,stimuli/26M_HA_O.BMP,stimuli/26M_HA_O.BMP,stimuli/27M_HA_O.BMP,stimuli/EmptyFrame.bmp,stimuli/RedFrame.bmp,1,Happy,Male,3,1,1.0,336.312744140625,336.312744140625,0.0,340.2595520019531,340.2595520019531,0.0,339.26898193359375,339.26898193359375,0.0,1.0,1.0,0.0,'1',0.6547825932502747,0.6547825932502747,0.0,80.0
Happy,stimuli/20M_HA_O.BMP,stimuli/21M_HA_O.BMP,stimuli/20M_HA_O.BMP,stimuli/EmptyFrame.bmp,stimuli/RedFrame.bmp,2,Happy,Male,3,1,1.0,340.2852478027344,340.2852478027344,0.0,344.27813720703125,344.27813720703125,0.0,343.2850341796875,343.2850341796875,0.0,1.0,1.0,0.0,'2',0.5295712947845459,0.5295712947845459,0.0,81.0
Happy,stimuli/37M_HA_O.BMP,stimuli/37M_HA_O.BMP,stimuli/36M_HA_O.BMP,stimuli/EmptyFrame.bmp,stimuli/RedFrame.bmp,1,Happy,Male,3,1,1.0,344.30419921875,344.30419921875,0.0,348.2967529296875,348.2967529296875,0.0,347.3105773925781,347.3105773925781,0.0,1.0,1.0,0.0,'1',0.6501954793930054,0.6501954793930054,0.0,82.0
Happy,stimuli/43M_HA_O.BMP,stimuli/42M_HA_O.BMP,stimuli/43M_HA_O.BMP,stimuli/EmptyFrame.bmp,stimuli/RedFrame.bmp,2,Happy,Male,3,1,1.0,348.3260498046875,348.3260498046875,0.0,352.3138122558594,352.3138122558594,0.0,351.3251953125,351.3251953125,0.0,1.0,1.0,0.0,'2',0.7741261124610901,0.7741261124610901,0.0,83.0
Happy,stimuli/11F_HA_O.BMP,stimuli/10F_HA_O.BMP,stimuli/11F_HA_O.BMP,stimuli/EmptyFrame.bmp,stimuli/RedFrame.bmp,2,Happy,Female,3,1,1.0,352.34136962890625,352.34136962890625,0.0,356.33245849609375,356.33245849609375,0.0,355.3409118652344,355.3409118652344,0.0,1.0,1.0,0.0,'2',0.6636090278625488,0.6636090278625488,0.0,84.0
Happy,stimuli/17F_HA_O.BMP,stimuli/16F_HA_O.BMP,stimuli/17F_HA_O.BMP,stimuli/EmptyFrame.bmp,stimuli/RedFrame.bmp,2,Happy,Female,3,1,1.0,356.3591613769531,356.3591613769531,0.0,360.3526916503906,360.3526916503906,0.0,359.35723876953125,359.35723876953125,0.0,1.0,1.0,0.0,'2',0.8641185760498047,0.8641185760498047,0.0,85.0
Happy,stimuli/15F_HA_O.BMP,stimuli/15F_HA_O.BMP,stimuli/14F_HA_O.BMP,stimuli/EmptyFrame.bmp,stimuli/RedFrame.bmp,1,Happy,Female,3,1,1.0,360.3787536621094,360.3787536621094,0.0,364.3646240234375,364.3646240234375,0.0,363.37689208984375,363.37689208984375,0.0,1.0,1.0,0.0,'1',0.9080129861831665,0.9080129861831665,0.0,86.0
Happy,stimuli/08F_HA_O.BMP,stimuli/08F_HA_O.BMP,stimuli/09F_HA_O.BMP,stimuli/EmptyFrame.bmp,stimuli/RedFrame.bmp,1,Happy,Female,3,1,1.0,364.3902282714844,364.3902282714844,0.0,368.3799133300781,368.3799133300781,0.0,367.3889465332031,367.3889465332031,0.0,1.0,1.0,0.0,'1',0.9408429861068726,0.9408429861068726,0.0,87.0
MatchFaces,stimuli/MatchFaces.bmp,stimuli/EmptyFace.bmp,stimuli/EmptyFace.bmp,stimuli/EmptyFrame.bmp,stimuli/EmptyFrame.bmp,Null,None,None,3,1,1.0,368.6656799316406,368.6656799316406,0.0,372.3867492675781,372.3867492675781,0.0,371.3981018066406,371.3981018066406,0.0,0.0,0.0,0.0,,,,,88.0
Fear,stimuli/34M_FE_O.BMP,stimuli/34M_FE_O.BMP,stimuli/33M_FE_O.BMP,stimuli/EmptyFrame.bmp,stimuli/RedFrame.bmp,1,Fear,Male,3,1,1.0,372.4751281738281,372.4751281738281,0.0,376.39910888671875,376.39910888671875,0.0,375.417236328125,375.417236328125,0.0,1.0,1.0,0.0,'1',0.7080093026161194,0.7080093026161194,0.0,89.0
Fear,stimuli/28M_FE_O.BMP,stimuli/28M_FE_O.BMP,stimuli/25M_FE_O.BMP,stimuli/EmptyFrame.bmp,stimuli/RedFrame.bmp,1,Fear,Male,3,1,1.0,376.4261779785156,376.4261779785156,0.0,380.4189453125,380.4189453125,0.0,379.4364318847656,379.4364318847656,0.0,1.0,1.0,0.0,'1',0.6947625875473022,0.6947625875473022,0.0,90.0
Fear,stimuli/11F_FE_O.BMP,stimuli/10F_FE_O.BMP,stimuli/11F_FE_O.BMP,stimuli/EmptyFrame.bmp,stimuli/RedFrame.bmp,2,Fear,Female,3,1,1.0,380.4446105957031,380.4446105957031,0.0,384.4356384277344,384.4356384277344,0.0,383.4414978027344,383.4414978027344,0.0,1.0,1.0,0.0,'2',0.7722342014312744,0.7722342014312744,0.0,91.0
Fear,stimuli/27M_FE_O.BMP,stimuli/26M_FE_O.BMP,stimuli/27M_FE_O.BMP,stimuli/EmptyFrame.bmp,stimuli/RedFrame.bmp,2,Fear,Male,3,1,1.0,384.463134765625,384.463134765625,0.0,388.45404052734375,388.45404052734375,0.0,387.4642639160156,387.4642639160156,0.0,1.0,1.0,0.0,'2',0.7727622985839844,0.7727622985839844,0.0,92.0
Fear,stimuli/11F_FE_O.BMP,stimuli/12F_FE_O.BMP,stimuli/11F_FE_O.BMP,stimuli/EmptyFrame.bmp,stimuli/RedFrame.bmp,2,Fear,Female,3,1,1.0,388.47943115234375,388.47943115234375,0.0,392.4706726074219,392.4706726074219,0.0,391.47393798828125,391.47393798828125,0.0,1.0,1.0,0.0,'2',1.249857783317566,1.249857783317566,0.0,93.0
Fear,stimuli/31M_FE_O.BMP,stimuli/31M_FE_O.BMP,stimuli/38M_FE_O.BMP,stimuli/EmptyFrame.bmp,stimuli/RedFrame.bmp,1,Fear,Male,3,1,1.0,392.49798583984375,392.49798583984375,0.0,396.49224853515625,396.49224853515625,0.0,395.49383544921875,395.49383544921875,0.0,1.0,1.0,0.0,'1',0.6497014164924622,0.6497014164924622,0.0,94.0
Fear,stimuli/29M_FE_O.BMP,stimuli/29M_FE_O.BMP,stimuli/24M_FE_O.BMP,stimuli/EmptyFrame.bmp,stimuli/RedFrame.bmp,1,Fear,Male,3,1,1.0,396.5171813964844,396.5171813964844,0.0,400.5064392089844,400.5064392089844,0.0,399.5118408203125,399.5118408203125,0.0,1.0,1.0,0.0,'1',0.7054005265235901,0.7054005265235901,0.0,95.0
Fear,stimuli/25M_FE_O.BMP,stimuli/29M_FE_O.BMP,stimuli/25M_FE_O.BMP,stimuli/EmptyFrame.bmp,stimuli/RedFrame.bmp,2,Fear,Male,3,1,1.0,400.5328063964844,400.5328063964844,0.0,404.5218200683594,404.5218200683594,0.0,403.5309753417969,403.5309753417969,0.0,1.0,1.0,0.0,'2',0.8198980093002319,0.8198980093002319,0.0,96.0
Fear,stimuli/15F_FE_O.BMP,stimuli/18F_FE_O.BMP,stimuli/15F_FE_O.BMP,stimuli/EmptyFrame.bmp,stimuli/RedFrame.bmp,2,Fear,Female,3,1,1.0,404.54754638671875,404.54754638671875,0.0,408.5332946777344,408.5332946777344,0.0,407.55560302734375,407.55560302734375,0.0,1.0,1.0,0.0,'2',0.9027246832847595,0.9027246832847595,0.0,97.0
Fear,stimuli/09F_FE_O.BMP,stimuli/09F_FE_O.BMP,stimuli/12F_FE_O.BMP,stimuli/EmptyFrame.bmp,stimuli/RedFrame.bmp,1,Fear,Female,3,1,1.0,408.5572509765625,408.5572509765625,0.0,412.55474853515625,412.55474853515625,0.0,411.56304931640625,411.56304931640625,0.0,1.0,1.0,0.0,'1',0.6872388124465942,0.6872388124465942,0.0,98.0
MatchFaces,stimuli/MatchFaces.bmp,stimuli/EmptyFace.bmp,stimuli/EmptyFace.bmp,stimuli/EmptyFrame.bmp,stimuli/EmptyFrame.bmp,Null,None,None,3,1,1.0,412.80059814453125,412.80059814453125,0.0,416.56268310546875,416.56268310546875,0.0,415.5689392089844,415.5689392089844,0.0,0.0,0.0,0.0,,,,,99.0
Anger,stimuli/23M_AN_O.BMP,stimuli/23M_AN_O.BMP,stimuli/31M_AN_O.BMP,stimuli/EmptyFrame.bmp,stimuli/RedFrame.bmp,1,Anger,Male,3,1,1.0,416.63433837890625,416.63433837890625,0.0,420.5787353515625,420.5787353515625,0.0,419.5856018066406,419.5856018066406,0.0,1.0,1.0,0.0,'1',0.9170153141021729,0.9170153141021729,0.0,100.0
Anger,stimuli/36M_AN_O.BMP,stimuli/37M_AN_O.BMP,stimuli/36M_AN_O.BMP,stimuli/EmptyFrame.bmp,stimuli/RedFrame.bmp,2,Anger,Male,3,1,1.0,420.606201171875,420.606201171875,0.0,424.5911865234375,424.5911865234375,0.0,423.6059875488281,423.6059875488281,0.0,1.0,1.0,0.0,'2',1.0606426000595093,1.0606426000595093,0.0,101.0
Anger,stimuli/38M_AN_O.BMP,stimuli/39M_AN_O.BMP,stimuli/38M_AN_O.BMP,stimuli/EmptyFrame.bmp,stimuli/RedFrame.bmp,2,Anger,Male,3,1,1.0,424.62017822265625,424.62017822265625,0.0,428.6083679199219,428.6083679199219,0.0,427.6144104003906,427.6144104003906,0.0,1.0,1.0,0.0,'2',0.6752946972846985,0.6752946972846985,0.0,102.0
Anger,stimuli/02f_an_o.bmp,stimuli/18F_AN_O.BMP,stimuli/02f_an_o.bmp,stimuli/EmptyFrame.bmp,stimuli/RedFrame.bmp,2,Anger,Female,3,1,1.0,428.63848876953125,428.63848876953125,0.0,432.6270446777344,432.6270446777344,0.0,431.6306457519531,431.6306457519531,0.0,1.0,1.0,0.0,'2',0.7236567735671997,0.7236567735671997,0.0,103.0
Anger,stimuli/22M_AN_O.BMP,stimuli/32M_AN_O.BMP,stimuli/22M_AN_O.BMP,stimuli/EmptyFrame.bmp,stimuli/RedFrame.bmp,2,Anger,Male,3,1,1.0,432.65228271484375,432.65228271484375,0.0,436.63616943359375,436.63616943359375,0.0,435.6545104980469,435.6545104980469,0.0,1.0,1.0,0.0,'2',0.7321714162826538,0.7321714162826538,0.0,104.0
Anger,stimuli/12F_AN_O.BMP,stimuli/12F_AN_O.BMP,stimuli/13F_AN_O.BMP,stimuli/EmptyFrame.bmp,stimuli/RedFrame.bmp,1,Anger,Female,3,1,1.0,436.65789794921875,436.65789794921875,0.0,440.6527099609375,440.6527099609375,0.0,439.6656799316406,439.6656799316406,0.0,1.0,1.0,0.0,'1',0.7466087937355042,0.7466087937355042,0.0,105.0
Anger,stimuli/05F_AN_O.bmp,stimuli/05F_AN_O.bmp,stimuli/16F_AN_O.BMP,stimuli/EmptyFrame.bmp,stimuli/RedFrame.bmp,1,Anger,Female,3,1,1.0,440.6836242675781,440.6836242675781,0.0,444.6670837402344,444.6670837402344,0.0,443.68084716796875,443.68084716796875,0.0,1.0,1.0,0.0,'1',0.7018604278564453,0.7018604278564453,0.0,106.0
Anger,stimuli/21M_AN_O.BMP,stimuli/21M_AN_O.BMP,stimuli/33M_AN_O.BMP,stimuli/EmptyFrame.bmp,stimuli/RedFrame.bmp,1,Anger,Male,3,1,1.0,444.69573974609375,444.69573974609375,0.0,448.68011474609375,448.68011474609375,0.0,447.69384765625,447.69384765625,0.0,1.0,1.0,0.0,'1',0.677741289138794,0.677741289138794,0.0,107.0
Anger,stimuli/07F_AN_O.BMP,stimuli/07F_AN_O.BMP,stimuli/14F_AN_O.BMP,stimuli/EmptyFrame.bmp,stimuli/RedFrame.bmp,1,Anger,Female,3,1,1.0,448.7075500488281,448.7075500488281,0.0,452.69598388671875,452.69598388671875,0.0,451.7131652832031,451.7131652832031,0.0,1.0,1.0,0.0,'1',0.7419747114181519,0.7419747114181519,0.0,108.0
Anger,stimuli/10F_AN_O.BMP,stimuli/10F_AN_O.BMP,stimuli/11F_AN_O.BMP,stimuli/EmptyFrame.bmp,stimuli/RedFrame.bmp,1,Anger,Female,3,1,1.0,452.7235107421875,452.7235107421875,0.0,456.7157287597656,456.7157287597656,0.0,455.7221984863281,455.7221984863281,0.0,1.0,1.0,0.0,'1',0.6449573040008545,0.6449573040008545,0.0,109.0

extraInfo
participant,sub024
session,001
date,2025_Jul_31_0915
expName,HaririTask_Ver2
psychopyVersion,3.0.1
frameRate,None
