TrialType,Top,Left,Right,EmptyFrame,SelectedFrame,Correct,Emotion,Gender,TrialLength,FixationLength,n,GCFaceStartTime_mean,GCFaceStartTime_raw,GCFaceStartTime_std,GCPostFaceFixationEndTime_mean,GCPostFaceFixationEndTime_raw,GCPostFaceFixationEndTime_std,GCPostFaceFixationStartTime_mean,GCPostFaceFixationStartTime_raw,GCPostFaceFixationStartTime_std,key_resp_trial.corr_mean,key_resp_trial.corr_raw,key_resp_trial.corr_std,key_resp_trial.keys_raw,key_resp_trial.rt_mean,key_resp_trial.rt_raw,key_resp_trial.rt_std,order
MatchFaces,stimuli/MatchFaces.bmp,stimuli/EmptyFace.bmp,stimuli/EmptyFace.bmp,stimuli/EmptyFrame.bmp,stimuli/EmptyFrame.bmp,Null,None,None,3,1,1.0,15.420772552490234,15.420772552490234,0.0,19.045063018798828,19.045063018798828,0.0,18.0534725189209,18.0534725189209,0.0,0.0,0.0,0.0,,,,,0.0
Fear,stimuli/23M_FE_O.BMP,stimuli/23M_FE_O.BMP,stimuli/24M_FE_O.BMP,stimuli/EmptyFrame.bmp,stimuli/RedFrame.bmp,1,Fear,Male,3,1,1.0,19.28647804260254,19.28647804260254,0.0,23.059206008911133,23.059206008911133,0.0,22.08014678955078,22.08014678955078,0.0,1.0,1.0,0.0,'1',1.1512035131454468,1.1512035131454468,0.0,1.0
Fear,stimuli/19F_FE_O.BMP,stimuli/18F_FE_O.BMP,stimuli/19F_FE_O.BMP,stimuli/EmptyFrame.bmp,stimuli/RedFrame.bmp,2,Fear,Female,3,1,1.0,23.08138656616211,23.08138656616211,0.0,27.072847366333008,27.072847366333008,0.0,26.10371208190918,26.10371208190918,0.0,1.0,1.0,0.0,'2',0.828926682472229,0.828926682472229,0.0,2.0
Fear,stimuli/17F_FE_O.BMP,stimuli/17F_FE_O.BMP,stimuli/16F_FE_O.BMP,stimuli/EmptyFrame.bmp,stimuli/RedFrame.bmp,1,Fear,Female,3,1,1.0,27.09493064880371,27.09493064880371,0.0,31.092309951782227,31.092309951782227,0.0,30.103649139404297,30.103649139404297,0.0,1.0,1.0,0.0,'1',0.4998916983604431,0.4998916983604431,0.0,3.0
Fear,stimuli/21M_FE_O.BMP,stimuli/21M_FE_O.BMP,stimuli/22M_FE_O.BMP,stimuli/EmptyFrame.bmp,stimuli/RedFrame.bmp,1,Fear,Male,3,1,1.0,31.130544662475586,31.130544662475586,0.0,35.112178802490234,35.112178802490234,0.0,34.127403259277344,34.127403259277344,0.0,1.0,1.0,0.0,'1',0.6671187281608582,0.6671187281608582,0.0,4.0
Fear,stimuli/09F_FE_O.BMP,stimuli/07F_FE_O.BMP,stimuli/09F_FE_O.BMP,stimuli/EmptyFrame.bmp,stimuli/RedFrame.bmp,2,Fear,Female,3,1,1.0,35.14026641845703,35.14026641845703,0.0,39.14474105834961,39.14474105834961,0.0,38.14433670043945,38.14433670043945,0.0,1.0,1.0,0.0,'2',0.6424235105514526,0.6424235105514526,0.0,5.0
Fear,stimuli/08F_FE_O.BMP,stimuli/13F_FE_O.BMP,stimuli/08F_FE_O.BMP,stimuli/EmptyFrame.bmp,stimuli/RedFrame.bmp,2,Fear,Female,3,1,1.0,39.168701171875,39.168701171875,0.0,43.15654373168945,43.15654373168945,0.0,42.174015045166016,42.174015045166016,0.0,1.0,1.0,0.0,'2',0.6863147020339966,0.6863147020339966,0.0,6.0
Fear,stimuli/07F_FE_O.BMP,stimuli/07F_FE_O.BMP,stimuli/14F_FE_O.BMP,stimuli/EmptyFrame.bmp,stimuli/RedFrame.bmp,1,Fear,Female,3,1,1.0,43.18330764770508,43.18330764770508,0.0,47.17353439331055,47.17353439331055,0.0,46.18571090698242,46.18571090698242,0.0,1.0,1.0,0.0,'1',0.6049509048461914,0.6049509048461914,0.0,7.0
Fear,stimuli/26M_FE_O.BMP,stimuli/26M_FE_O.BMP,stimuli/28M_FE_O.BMP,stimuli/EmptyFrame.bmp,stimuli/RedFrame.bmp,1,Fear,Male,3,1,1.0,47.19369125366211,47.19369125366211,0.0,51.18437576293945,51.18437576293945,0.0,50.19837188720703,50.19837188720703,0.0,1.0,1.0,0.0,'1',0.67360919713974,0.67360919713974,0.0,8.0
Fear,stimuli/10F_FE_O.BMP,stimuli/11F_FE_O.BMP,stimuli/10F_FE_O.BMP,stimuli/EmptyFrame.bmp,stimuli/RedFrame.bmp,2,Fear,Female,3,1,1.0,51.20661926269531,51.20661926269531,0.0,55.19768524169922,55.19768524169922,0.0,54.21473693847656,54.21473693847656,0.0,1.0,1.0,0.0,'2',0.564368724822998,0.564368724822998,0.0,9.0
Fear,stimuli/29M_FE_O.BMP,stimuli/30M_FE_O.BMP,stimuli/29M_FE_O.BMP,stimuli/EmptyFrame.bmp,stimuli/RedFrame.bmp,2,Fear,Male,3,1,1.0,55.222450256347656,55.222450256347656,0.0,59.224754333496094,59.224754333496094,0.0,58.225345611572266,58.225345611572266,0.0,1.0,1.0,0.0,'2',0.5912464261054993,0.5912464261054993,0.0,10.0
MatchFaces,stimuli/MatchFaces.bmp,stimuli/EmptyFace.bmp,stimuli/EmptyFace.bmp,stimuli/EmptyFrame.bmp,stimuli/EmptyFrame.bmp,Null,None,None,3,1,1.0,59.397430419921875,59.397430419921875,0.0,63.23297882080078,63.23297882080078,0.0,62.233768463134766,62.233768463134766,0.0,0.0,0.0,0.0,,,,,11.0
Neutral,stimuli/07F_NE_C.BMP,stimuli/07F_NE_C.BMP,stimuli/14F_NE_C.BMP,stimuli/EmptyFrame.bmp,stimuli/RedFrame.bmp,1,Neutral,Female,3,1,1.0,63.31267547607422,63.31267547607422,0.0,67.25164794921875,67.25164794921875,0.0,66.26313781738281,66.26313781738281,0.0,1.0,1.0,0.0,'1',0.6193727850914001,0.6193727850914001,0.0,12.0
Neutral,stimuli/25M_NE_C.BMP,stimuli/29M_NE_C.BMP,stimuli/25M_NE_C.BMP,stimuli/EmptyFrame.bmp,stimuli/RedFrame.bmp,2,Neutral,Male,3,1,1.0,67.2773208618164,67.2773208618164,0.0,71.2690200805664,71.2690200805664,0.0,70.27861785888672,70.27861785888672,0.0,1.0,1.0,0.0,'2',0.6432529091835022,0.6432529091835022,0.0,13.0
Neutral,stimuli/26M_NE_C.BMP,stimuli/26M_NE_C.BMP,stimuli/28M_NE_C.BMP,stimuli/EmptyFrame.bmp,stimuli/RedFrame.bmp,1,Neutral,Male,3,1,1.0,71.29454040527344,71.29454040527344,0.0,75.28858184814453,75.28858184814453,0.0,74.30187225341797,74.30187225341797,0.0,1.0,1.0,0.0,'1',0.6439024209976196,0.6439024209976196,0.0,14.0
Neutral,stimuli/08F_NE_C.BMP,stimuli/13F_NE_C.BMP,stimuli/08F_NE_C.BMP,stimuli/EmptyFrame.bmp,stimuli/RedFrame.bmp,2,Neutral,Female,3,1,1.0,75.3172836303711,75.3172836303711,0.0,79.31273651123047,79.31273651123047,0.0,78.32454681396484,78.32454681396484,0.0,1.0,1.0,0.0,'2',0.5832015872001648,0.5832015872001648,0.0,15.0
Neutral,stimuli/09F_NE_C.BMP,stimuli/09F_NE_C.BMP,stimuli/12F_NE_C.BMP,stimuli/EmptyFrame.bmp,stimuli/RedFrame.bmp,1,Neutral,Female,3,1,1.0,79.33533477783203,79.33533477783203,0.0,83.33202362060547,83.33202362060547,0.0,82.34928894042969,82.34928894042969,0.0,1.0,1.0,0.0,'1',0.5843514204025269,0.5843514204025269,0.0,16.0
Neutral,stimuli/27M_NE_C.BMP,stimuli/26M_NE_C.BMP,stimuli/27M_NE_C.BMP,stimuli/EmptyFrame.bmp,stimuli/RedFrame.bmp,2,Neutral,Male,3,1,1.0,83.36470794677734,83.36470794677734,0.0,87.35407257080078,87.35407257080078,0.0,86.3593521118164,86.3593521118164,0.0,1.0,1.0,0.0,'2',0.881413996219635,0.881413996219635,0.0,17.0
Neutral,stimuli/28M_NE_C.BMP,stimuli/28M_NE_C.BMP,stimuli/25M_NE_C.BMP,stimuli/EmptyFrame.bmp,stimuli/RedFrame.bmp,1,Neutral,Male,3,1,1.0,87.38013458251953,87.38013458251953,0.0,91.3736801147461,91.3736801147461,0.0,90.3930892944336,90.3930892944336,0.0,1.0,1.0,0.0,'1',0.6362372040748596,0.6362372040748596,0.0,18.0
Neutral,stimuli/10F_NE_C.BMP,stimuli/11F_NE_C.BMP,stimuli/10F_NE_C.BMP,stimuli/EmptyFrame.bmp,stimuli/RedFrame.bmp,2,Neutral,Female,3,1,1.0,91.39901733398438,91.39901733398438,0.0,95.39466857910156,95.39466857910156,0.0,94.3974609375,94.3974609375,0.0,1.0,1.0,0.0,'2',0.533268928527832,0.533268928527832,0.0,19.0
Neutral,stimuli/29M_NE_C.BMP,stimuli/29M_NE_C.BMP,stimuli/24M_NE_C.BMP,stimuli/EmptyFrame.bmp,stimuli/RedFrame.bmp,1,Neutral,Male,3,1,1.0,95.41429901123047,95.41429901123047,0.0,99.41580963134766,99.41580963134766,0.0,98.42391204833984,98.42391204833984,0.0,1.0,1.0,0.0,'1',0.5633481740951538,0.5633481740951538,0.0,20.0
Neutral,stimuli/11F_NE_C.BMP,stimuli/10F_NE_C.BMP,stimuli/11F_NE_C.BMP,stimuli/EmptyFrame.bmp,stimuli/RedFrame.bmp,2,Neutral,Female,3,1,1.0,99.4383773803711,99.4383773803711,0.0,103.43392181396484,103.43392181396484,0.0,102.44978332519531,102.44978332519531,0.0,1.0,1.0,0.0,'2',0.5110260248184204,0.5110260248184204,0.0,21.0
MatchShape,stimuli/MatchShapes.bmp,stimuli/EmptyFace.bmp,stimuli/EmptyFace.bmp,stimuli/EmptyFrame.bmp,stimuli/EmptyFrame.bmp,Null,None,None,3,1,1.0,103.45845794677734,103.45845794677734,0.0,107.43675231933594,107.43675231933594,0.0,106.46867370605469,106.46867370605469,0.0,0.0,0.0,0.0,,,,,22.0
Shape,stimuli/circle.bmp,stimuli/vertical.bmp,stimuli/circle.bmp,stimuli/EmptyFrame.bmp,stimuli/RedFrame.bmp,2,Shape,None,3,1,1.0,107.46524810791016,107.46524810791016,0.0,111.45529174804688,111.45529174804688,0.0,110.46788787841797,110.46788787841797,0.0,1.0,1.0,0.0,'2',0.6154823899269104,0.6154823899269104,0.0,23.0
Shape,stimuli/horizontal.bmp,stimuli/circle.bmp,stimuli/horizontal.bmp,stimuli/EmptyFrame.bmp,stimuli/RedFrame.bmp,2,Shape,None,3,1,1.0,111.4792251586914,111.4792251586914,0.0,115.47673797607422,115.47673797607422,0.0,114.4840316772461,114.4840316772461,0.0,1.0,1.0,0.0,'2',0.6306139826774597,0.6306139826774597,0.0,24.0
Shape,stimuli/circle.bmp,stimuli/vertical.bmp,stimuli/circle.bmp,stimuli/EmptyFrame.bmp,stimuli/RedFrame.bmp,2,Shape,None,3,1,1.0,115.49755096435547,115.49755096435547,0.0,119.48941802978516,119.48941802978516,0.0,118.5001449584961,118.5001449584961,0.0,1.0,1.0,0.0,'2',0.7329903244972229,0.7329903244972229,0.0,25.0
Shape,stimuli/vertical.bmp,stimuli/circle.bmp,stimuli/vertical.bmp,stimuli/EmptyFrame.bmp,stimuli/RedFrame.bmp,2,Shape,None,3,1,1.0,119.51268005371094,119.51268005371094,0.0,123.51136016845703,123.51136016845703,0.0,122.51260375976562,122.51260375976562,0.0,1.0,1.0,0.0,'2',0.6193810105323792,0.6193810105323792,0.0,26.0
Shape,stimuli/vertical.bmp,stimuli/horizontal.bmp,stimuli/vertical.bmp,stimuli/EmptyFrame.bmp,stimuli/RedFrame.bmp,2,Shape,None,3,1,1.0,123.53303527832031,123.53303527832031,0.0,127.53021240234375,127.53021240234375,0.0,126.54196166992188,126.54196166992188,0.0,0.0,0.0,0.0,'1',0.5758172273635864,0.5758172273635864,0.0,27.0
Shape,stimuli/horizontal.bmp,stimuli/horizontal.bmp,stimuli/vertical.bmp,stimuli/EmptyFrame.bmp,stimuli/RedFrame.bmp,1,Shape,None,3,1,1.0,127.5553207397461,127.5553207397461,0.0,131.5397186279297,131.5397186279297,0.0,130.55699157714844,130.55699157714844,0.0,0.0,0.0,0.0,'2',0.7227240204811096,0.7227240204811096,0.0,28.0
Shape,stimuli/horizontal.bmp,stimuli/circle.bmp,stimuli/horizontal.bmp,stimuli/EmptyFrame.bmp,stimuli/RedFrame.bmp,2,Shape,None,3,1,1.0,131.56243896484375,131.56243896484375,0.0,135.55859375,135.55859375,0.0,134.56553649902344,134.56553649902344,0.0,1.0,1.0,0.0,'2',0.7086222767829895,0.7086222767829895,0.0,29.0
Shape,stimuli/circle.bmp,stimuli/circle.bmp,stimuli/vertical.bmp,stimuli/EmptyFrame.bmp,stimuli/RedFrame.bmp,1,Shape,None,3,1,1.0,135.580810546875,135.580810546875,0.0,139.57839965820312,139.57839965820312,0.0,138.58148193359375,138.58148193359375,0.0,1.0,1.0,0.0,'1',0.6958649754524231,0.6958649754524231,0.0,30.0
Shape,stimuli/vertical.bmp,stimuli/horizontal.bmp,stimuli/vertical.bmp,stimuli/EmptyFrame.bmp,stimuli/RedFrame.bmp,2,Shape,None,3,1,1.0,139.59884643554688,139.59884643554688,0.0,143.6046142578125,143.6046142578125,0.0,142.60140991210938,142.60140991210938,0.0,1.0,1.0,0.0,'2',1.1353785991668701,1.1353785991668701,0.0,31.0
Shape,stimuli/vertical.bmp,stimuli/vertical.bmp,stimuli/horizontal.bmp,stimuli/EmptyFrame.bmp,stimuli/RedFrame.bmp,1,Shape,None,3,1,1.0,143.63047790527344,143.63047790527344,0.0,147.61334228515625,147.61334228515625,0.0,146.62615966796875,146.62615966796875,0.0,1.0,1.0,0.0,'1',0.6391755938529968,0.6391755938529968,0.0,32.0
MatchFaces,stimuli/MatchFaces.bmp,stimuli/EmptyFace.bmp,stimuli/EmptyFace.bmp,stimuli/EmptyFrame.bmp,stimuli/EmptyFrame.bmp,Null,None,None,3,1,1.0,147.8417205810547,147.8417205810547,0.0,151.6208953857422,151.6208953857422,0.0,150.62037658691406,150.62037658691406,0.0,0.0,0.0,0.0,,,,,33.0
Anger,stimuli/20M_AN_O.BMP,stimuli/34M_AN_O.BMP,stimuli/20M_AN_O.BMP,stimuli/EmptyFrame.bmp,stimuli/RedFrame.bmp,2,Anger,Male,3,1,1.0,151.68832397460938,151.68832397460938,0.0,155.64456176757812,155.64456176757812,0.0,154.64341735839844,154.64341735839844,0.0,1.0,1.0,0.0,'2',0.6420450210571289,0.6420450210571289,0.0,34.0
Anger,stimuli/01F_AN_O.bmp,stimuli/19F_AN_O.BMP,stimuli/01F_AN_O.bmp,stimuli/EmptyFrame.bmp,stimuli/RedFrame.bmp,2,Anger,Female,3,1,1.0,155.6697235107422,155.6697235107422,0.0,159.67208862304688,159.67208862304688,0.0,158.68528747558594,158.68528747558594,0.0,1.0,1.0,0.0,'2',0.6968048810958862,0.6968048810958862,0.0,35.0
Anger,stimuli/06F_AN_O.bmp,stimuli/15F_AN_O.BMP,stimuli/06F_AN_O.bmp,stimuli/EmptyFrame.bmp,stimuli/RedFrame.bmp,2,Anger,Female,3,1,1.0,159.69833374023438,159.69833374023438,0.0,163.6907958984375,163.6907958984375,0.0,162.70542907714844,162.70542907714844,0.0,1.0,1.0,0.0,'2',0.734102189540863,0.734102189540863,0.0,36.0
Anger,stimuli/42M_AN_O.BMP,stimuli/42M_AN_O.BMP,stimuli/43M_AN_O.BMP,stimuli/EmptyFrame.bmp,stimuli/RedFrame.bmp,1,Anger,Male,3,1,1.0,163.71681213378906,163.71681213378906,0.0,167.70687866210938,167.70687866210938,0.0,166.71665954589844,166.71665954589844,0.0,1.0,1.0,0.0,'1',0.5712224841117859,0.5712224841117859,0.0,37.0
Anger,stimuli/40M_AN_O.BMP,stimuli/41M_AN_O.BMP,stimuli/40M_AN_O.BMP,stimuli/EmptyFrame.bmp,stimuli/RedFrame.bmp,2,Anger,Male,3,1,1.0,167.72911071777344,167.72911071777344,0.0,171.72396850585938,171.72396850585938,0.0,170.73472595214844,170.73472595214844,0.0,1.0,1.0,0.0,'2',0.5395867824554443,0.5395867824554443,0.0,38.0
Anger,stimuli/08F_AN_O.BMP,stimuli/08F_AN_O.BMP,stimuli/13F_AN_O.BMP,stimuli/EmptyFrame.bmp,stimuli/RedFrame.bmp,1,Anger,Female,3,1,1.0,171.74951171875,171.74951171875,0.0,175.7413787841797,175.7413787841797,0.0,174.75042724609375,174.75042724609375,0.0,1.0,1.0,0.0,'1',0.5408111810684204,0.5408111810684204,0.0,39.0
Anger,stimuli/09F_AN_O.BMP,stimuli/12F_AN_O.BMP,stimuli/09F_AN_O.BMP,stimuli/EmptyFrame.bmp,stimuli/RedFrame.bmp,2,Anger,Female,3,1,1.0,175.76751708984375,175.76751708984375,0.0,179.75901794433594,179.75901794433594,0.0,178.7647247314453,178.7647247314453,0.0,1.0,1.0,0.0,'2',0.5974296927452087,0.5974296927452087,0.0,40.0
Anger,stimuli/34M_AN_O.BMP,stimuli/35M_AN_O.BMP,stimuli/34M_AN_O.BMP,stimuli/EmptyFrame.bmp,stimuli/RedFrame.bmp,2,Anger,Male,3,1,1.0,179.78399658203125,179.78399658203125,0.0,183.7689666748047,183.7689666748047,0.0,182.7940216064453,182.7940216064453,0.0,1.0,1.0,0.0,'2',0.6339840888977051,0.6339840888977051,0.0,41.0
Anger,stimuli/24M_AN_O.BMP,stimuli/24M_AN_O.BMP,stimuli/30M_AN_O.BMP,stimuli/EmptyFrame.bmp,stimuli/RedFrame.bmp,1,Anger,Male,3,1,1.0,183.79356384277344,183.79356384277344,0.0,187.7809295654297,187.7809295654297,0.0,186.79241943359375,186.79241943359375,0.0,1.0,1.0,0.0,'1',0.5212954878807068,0.5212954878807068,0.0,42.0
Anger,stimuli/03F_AN_O.bmp,stimuli/03F_AN_O.bmp,stimuli/17F_AN_O.BMP,stimuli/EmptyFrame.bmp,stimuli/RedFrame.bmp,1,Anger,Female,3,1,1.0,187.8071746826172,187.8071746826172,0.0,191.7947540283203,191.7947540283203,0.0,190.8279571533203,190.8279571533203,0.0,1.0,1.0,0.0,'1',0.7622858285903931,0.7622858285903931,0.0,43.0
MatchFaces,stimuli/MatchFaces.bmp,stimuli/EmptyFace.bmp,stimuli/EmptyFace.bmp,stimuli/EmptyFrame.bmp,stimuli/EmptyFrame.bmp,Null,None,None,3,1,1.0,191.97933959960938,191.97933959960938,0.0,195.79795837402344,195.79795837402344,0.0,194.810546875,194.810546875,0.0,0.0,0.0,0.0,,,,,44.0
Happy,stimuli/06F_HA_O.bmp,stimuli/07F_HA_O.BMP,stimuli/06F_HA_O.bmp,stimuli/EmptyFrame.bmp,stimuli/RedFrame.bmp,2,Happy,Female,3,1,1.0,195.8671112060547,195.8671112060547,0.0,199.80975341796875,199.80975341796875,0.0,198.86111450195312,198.86111450195312,0.0,1.0,1.0,0.0,'2',0.7552585005760193,0.7552585005760193,0.0,45.0
Happy,stimuli/13F_HA_O.BMP,stimuli/13F_HA_O.BMP,stimuli/12F_HA_O.BMP,stimuli/EmptyFrame.bmp,stimuli/RedFrame.bmp,1,Happy,Female,3,1,1.0,199.83114624023438,199.83114624023438,0.0,203.8230743408203,203.8230743408203,0.0,202.84109497070312,202.84109497070312,0.0,1.0,1.0,0.0,'1',0.5550156235694885,0.5550156235694885,0.0,46.0
Happy,stimuli/41M_HA_O.BMP,stimuli/41M_HA_O.BMP,stimuli/40M_HA_O.BMP,stimuli/EmptyFrame.bmp,stimuli/RedFrame.bmp,1,Happy,Male,3,1,1.0,203.8446807861328,203.8446807861328,0.0,207.84024047851562,207.84024047851562,0.0,206.85202026367188,206.85202026367188,0.0,1.0,1.0,0.0,'1',0.7044128775596619,0.7044128775596619,0.0,47.0
Happy,stimuli/03F_HA_O.bmp,stimuli/05F_HA_O.bmp,stimuli/03F_HA_O.bmp,stimuli/EmptyFrame.bmp,stimuli/RedFrame.bmp,2,Happy,Female,3,1,1.0,207.86488342285156,207.86488342285156,0.0,211.8614044189453,211.8614044189453,0.0,210.86935424804688,210.86935424804688,0.0,1.0,1.0,0.0,'2',0.5514981746673584,0.5514981746673584,0.0,48.0
Happy,stimuli/24M_HA_O.BMP,stimuli/24M_HA_O.BMP,stimuli/25M_HA_O.BMP,stimuli/EmptyFrame.bmp,stimuli/RedFrame.bmp,1,Happy,Male,3,1,1.0,211.88218688964844,211.88218688964844,0.0,215.87814331054688,215.87814331054688,0.0,214.89979553222656,214.89979553222656,0.0,1.0,1.0,0.0,'1',0.5284181833267212,0.5284181833267212,0.0,49.0
Happy,stimuli/19F_HA_O.BMP,stimuli/19F_HA_O.BMP,stimuli/18F_HA_O.BMP,stimuli/EmptyFrame.bmp,stimuli/RedFrame.bmp,1,Happy,Female,3,1,1.0,215.90322875976562,215.90322875976562,0.0,219.892333984375,219.892333984375,0.0,218.9072265625,218.9072265625,0.0,1.0,1.0,0.0,'1',0.5176681876182556,0.5176681876182556,0.0,50.0
Happy,stimuli/01F_HA_O.bmp,stimuli/01F_HA_O.bmp,stimuli/02F_HA_O.bmp,stimuli/EmptyFrame.bmp,stimuli/RedFrame.bmp,1,Happy,Female,3,1,1.0,219.92318725585938,219.92318725585938,0.0,223.90806579589844,223.90806579589844,0.0,222.92242431640625,222.92242431640625,0.0,1.0,1.0,0.0,'1',0.5673047304153442,0.5673047304153442,0.0,51.0
Happy,stimuli/22M_HA_O.BMP,stimuli/23M_HA_O.BMP,stimuli/22M_HA_O.BMP,stimuli/EmptyFrame.bmp,stimuli/RedFrame.bmp,2,Happy,Male,3,1,1.0,223.93309020996094,223.93309020996094,0.0,227.93043518066406,227.93043518066406,0.0,226.93519592285156,226.93519592285156,0.0,1.0,1.0,0.0,'2',0.6032187938690186,0.6032187938690186,0.0,52.0
Happy,stimuli/35M_HA_O.BMP,stimuli/34M_HA_O.BMP,stimuli/35M_HA_O.BMP,stimuli/EmptyFrame.bmp,stimuli/RedFrame.bmp,2,Happy,Male,3,1,1.0,227.9569091796875,227.9569091796875,0.0,231.9443817138672,231.9443817138672,0.0,230.95785522460938,230.95785522460938,0.0,1.0,1.0,0.0,'2',0.6196054220199585,0.6196054220199585,0.0,53.0
Happy,stimuli/39M_HA_O.BMP,stimuli/38M_HA_O.BMP,stimuli/39M_HA_O.BMP,stimuli/EmptyFrame.bmp,stimuli/RedFrame.bmp,2,Happy,Male,3,1,1.0,231.96923828125,231.96923828125,0.0,235.9585723876953,235.9585723876953,0.0,234.98023986816406,234.98023986816406,0.0,1.0,1.0,0.0,'2',0.9118080139160156,0.9118080139160156,0.0,54.0
Match Shape,stimuli/MatchShapes.bmp,stimuli/EmptyFace.bmp,stimuli/EmptyFace.bmp,stimuli/EmptyFrame.bmp,stimuli/EmptyFrame.bmp,Null,None,None,3,1,1.0,235.9834442138672,235.9834442138672,0.0,239.9698028564453,239.9698028564453,0.0,238.96978759765625,238.96978759765625,0.0,0.0,0.0,0.0,,,,,55.0
Shape,stimuli/horizontal.bmp,stimuli/horizontal.bmp,stimuli/vertical.bmp,stimuli/EmptyFrame.bmp,stimuli/RedFrame.bmp,1,Shape,None,3,1,1.0,239.99900817871094,239.99900817871094,0.0,243.98870849609375,243.98870849609375,0.0,242.9915771484375,242.9915771484375,0.0,1.0,1.0,0.0,'1',0.7202363014221191,0.7202363014221191,0.0,56.0
Shape,stimuli/horizontal.bmp,stimuli/horizontal.bmp,stimuli/circle.bmp,stimuli/EmptyFrame.bmp,stimuli/RedFrame.bmp,1,Shape,None,3,1,1.0,244.01409912109375,244.01409912109375,0.0,248.0005645751953,248.0005645751953,0.0,247.0179901123047,247.0179901123047,0.0,1.0,1.0,0.0,'1',0.5792649984359741,0.5792649984359741,0.0,57.0
Shape,stimuli/circle.bmp,stimuli/vertical.bmp,stimuli/circle.bmp,stimuli/EmptyFrame.bmp,stimuli/RedFrame.bmp,2,Shape,None,3,1,1.0,248.0244140625,248.0244140625,0.0,252.02000427246094,252.02000427246094,0.0,251.03836059570312,251.03836059570312,0.0,1.0,1.0,0.0,'2',0.6125928163528442,0.6125928163528442,0.0,58.0
Shape,stimuli/vertical.bmp,stimuli/vertical.bmp,stimuli/circle.bmp,stimuli/EmptyFrame.bmp,stimuli/RedFrame.bmp,1,Shape,None,3,1,1.0,252.04315185546875,252.04315185546875,0.0,256.0336608886719,256.0336608886719,0.0,255.05316162109375,255.05316162109375,0.0,1.0,1.0,0.0,'1',0.5450276732444763,0.5450276732444763,0.0,59.0
Shape,stimuli/horizontal.bmp,stimuli/horizontal.bmp,stimuli/circle.bmp,stimuli/EmptyFrame.bmp,stimuli/RedFrame.bmp,1,Shape,None,3,1,1.0,256.05755615234375,256.05755615234375,0.0,260.0559387207031,260.0559387207031,0.0,259.07391357421875,259.07391357421875,0.0,1.0,1.0,0.0,'1',0.5731545090675354,0.5731545090675354,0.0,60.0
Shape,stimuli/vertical.bmp,stimuli/vertical.bmp,stimuli/circle.bmp,stimuli/EmptyFrame.bmp,stimuli/RedFrame.bmp,1,Shape,None,3,1,1.0,260.0813903808594,260.0813903808594,0.0,264.0768127441406,264.0768127441406,0.0,263.0876770019531,263.0876770019531,0.0,1.0,1.0,0.0,'1',0.7239871025085449,0.7239871025085449,0.0,61.0
Shape,stimuli/horizontal.bmp,stimuli/circle.bmp,stimuli/horizontal.bmp,stimuli/EmptyFrame.bmp,stimuli/RedFrame.bmp,2,Shape,None,3,1,1.0,264.0971984863281,264.0971984863281,0.0,268.0964660644531,268.0964660644531,0.0,267.0982360839844,267.0982360839844,0.0,1.0,1.0,0.0,'2',0.5407245755195618,0.5407245755195618,0.0,62.0
Shape,stimuli/circle.bmp,stimuli/circle.bmp,stimuli/horizontal.bmp,stimuli/EmptyFrame.bmp,stimuli/RedFrame.bmp,1,Shape,None,3,1,1.0,268.1212158203125,268.1212158203125,0.0,272.1123962402344,272.1123962402344,0.0,271.1293640136719,271.1293640136719,0.0,1.0,1.0,0.0,'1',0.7316601276397705,0.7316601276397705,0.0,63.0
Shape,stimuli/circle.bmp,stimuli/horizontal.bmp,stimuli/circle.bmp,stimuli/EmptyFrame.bmp,stimuli/RedFrame.bmp,2,Shape,None,3,1,1.0,272.1357116699219,272.1357116699219,0.0,276.1256408691406,276.1256408691406,0.0,275.13604736328125,275.13604736328125,0.0,1.0,1.0,0.0,'2',0.764909029006958,0.764909029006958,0.0,64.0
Shape,stimuli/vertical.bmp,stimuli/vertical.bmp,stimuli/horizontal.bmp,stimuli/EmptyFrame.bmp,stimuli/RedFrame.bmp,1,Shape,None,3,1,1.0,276.1499328613281,276.1499328613281,0.0,280.1374816894531,280.1374816894531,0.0,279.1493835449219,279.1493835449219,0.0,1.0,1.0,0.0,'1',0.7502009868621826,0.7502009868621826,0.0,65.0
MatchFaces,stimuli/MatchFaces.bmp,stimuli/EmptyFace.bmp,stimuli/EmptyFace.bmp,stimuli/EmptyFrame.bmp,stimuli/EmptyFrame.bmp,Null,None,None,3,1,1.0,280.40875244140625,280.40875244140625,0.0,284.1427307128906,284.1427307128906,0.0,283.1534423828125,283.1534423828125,0.0,0.0,0.0,0.0,,,,,66.0
Neutral,stimuli/20M_NE_C.BMP,stimuli/21M_NE_C.BMP,stimuli/20M_NE_C.BMP,stimuli/EmptyFrame.bmp,stimuli/RedFrame.bmp,2,Neutral,Male,3,1,1.0,284.24285888671875,284.24285888671875,0.0,288.1677551269531,288.1677551269531,0.0,287.1706848144531,287.1706848144531,0.0,1.0,1.0,0.0,'2',0.5943171977996826,0.5943171977996826,0.0,67.0
Neutral,stimuli/01F_NE_C.bmp,stimuli/01F_NE_C.bmp,stimuli/02F_NE_C.bmp,stimuli/EmptyFrame.bmp,stimuli/RedFrame.bmp,1,Neutral,Female,3,1,1.0,288.1922302246094,288.1922302246094,0.0,292.18353271484375,292.18353271484375,0.0,291.2015075683594,291.2015075683594,0.0,1.0,1.0,0.0,'1',0.5782721042633057,0.5782721042633057,0.0,68.0
Neutral,stimuli/22M_NE_C.BMP,stimuli/23M_NE_C.BMP,stimuli/22M_NE_C.BMP,stimuli/EmptyFrame.bmp,stimuli/RedFrame.bmp,2,Neutral,Male,3,1,1.0,292.2095031738281,292.2095031738281,0.0,296.20880126953125,296.20880126953125,0.0,295.2230529785156,295.2230529785156,0.0,1.0,1.0,0.0,'2',0.6811326742172241,0.6811326742172241,0.0,69.0
Neutral,stimuli/24M_NE_C.BMP,stimuli/24M_NE_C.BMP,stimuli/25M_NE_C.BMP,stimuli/EmptyFrame.bmp,stimuli/RedFrame.bmp,1,Neutral,Male,3,1,1.0,296.23175048828125,296.23175048828125,0.0,300.221923828125,300.221923828125,0.0,299.2361145019531,299.2361145019531,0.0,1.0,1.0,0.0,'1',0.6703866124153137,0.6703866124153137,0.0,70.0
Neutral,stimuli/03F_NE_C.bmp,stimuli/05F_NE_C.bmp,stimuli/03F_NE_C.bmp,stimuli/EmptyFrame.bmp,stimuli/RedFrame.bmp,2,Neutral,Female,3,1,1.0,300.2440185546875,300.2440185546875,0.0,304.2344055175781,304.2344055175781,0.0,303.2491760253906,303.2491760253906,0.0,1.0,1.0,0.0,'2',0.5541585087776184,0.5541585087776184,0.0,71.0
Neutral,stimuli/26M_NE_C.BMP,stimuli/26M_NE_C.BMP,stimuli/27M_NE_C.BMP,stimuli/EmptyFrame.bmp,stimuli/RedFrame.bmp,1,Neutral,Male,3,1,1.0,304.2541198730469,304.2541198730469,0.0,308.24554443359375,308.24554443359375,0.0,307.265869140625,307.265869140625,0.0,1.0,1.0,0.0,'1',0.5640321969985962,0.5640321969985962,0.0,72.0
Neutral,stimuli/06F_NE_C.bmp,stimuli/07F_NE_C.BMP,stimuli/06F_NE_C.bmp,stimuli/EmptyFrame.bmp,stimuli/RedFrame.bmp,2,Neutral,Female,3,1,1.0,308.2666320800781,308.2666320800781,0.0,312.2642822265625,312.2642822265625,0.0,311.28271484375,311.28271484375,0.0,1.0,1.0,0.0,'2',0.6471850872039795,0.6471850872039795,0.0,73.0
Neutral,stimuli/08F_NE_C.BMP,stimuli/08F_NE_C.BMP,stimuli/09F_NE_C.BMP,stimuli/EmptyFrame.bmp,stimuli/RedFrame.bmp,1,Neutral,Female,3,1,1.0,312.2921142578125,312.2921142578125,0.0,316.2919921875,316.2919921875,0.0,315.2915954589844,315.2915954589844,0.0,1.0,1.0,0.0,'1',0.7058194875717163,0.7058194875717163,0.0,74.0
Neutral,stimuli/28M_NE_C.BMP,stimuli/29M_NE_C.BMP,stimuli/28M_NE_C.BMP,stimuli/EmptyFrame.bmp,stimuli/RedFrame.bmp,2,Neutral,Male,3,1,1.0,316.3165588378906,316.3165588378906,0.0,320.3055725097656,320.3055725097656,0.0,319.31689453125,319.31689453125,0.0,1.0,1.0,0.0,'2',0.6460663080215454,0.6460663080215454,0.0,75.0
Neutral,stimuli/10F_NE_C.BMP,stimuli/10F_NE_C.BMP,stimuli/06F_NE_C.bmp,stimuli/EmptyFrame.bmp,stimuli/RedFrame.bmp,1,Neutral,Female,3,1,1.0,320.3283386230469,320.3283386230469,0.0,324.32659912109375,324.32659912109375,0.0,323.3435363769531,323.3435363769531,0.0,1.0,1.0,0.0,'1',0.47356149554252625,0.47356149554252625,0.0,76.0
MatchFaces,stimuli/MatchFaces.bmp,stimuli/EmptyFace.bmp,stimuli/EmptyFace.bmp,stimuli/EmptyFrame.bmp,stimuli/EmptyFrame.bmp,Null,None,None,3,1,1.0,324.5416259765625,324.5416259765625,0.0,328.33282470703125,328.33282470703125,0.0,327.334716796875,327.334716796875,0.0,0.0,0.0,0.0,,,,,77.0
Happy,stimuli/28M_HA_O.BMP,stimuli/29M_HA_O.BMP,stimuli/28M_HA_O.BMP,stimuli/EmptyFrame.bmp,stimuli/RedFrame.bmp,2,Happy,Male,3,1,1.0,328.3983459472656,328.3983459472656,0.0,332.3478088378906,332.3478088378906,0.0,331.3609619140625,331.3609619140625,0.0,1.0,1.0,0.0,'2',1.0593756437301636,1.0593756437301636,0.0,78.0
Happy,stimuli/10F_HA_O.BMP,stimuli/10F_HA_O.BMP,stimuli/06F_HA_O.bmp,stimuli/EmptyFrame.bmp,stimuli/RedFrame.bmp,1,Happy,Female,3,1,1.0,332.367431640625,332.367431640625,0.0,336.3634338378906,336.3634338378906,0.0,335.3701477050781,335.3701477050781,0.0,1.0,1.0,0.0,'1',0.5023075938224792,0.5023075938224792,0.0,79.0
Happy,stimuli/26M_HA_O.BMP,stimuli/26M_HA_O.BMP,stimuli/27M_HA_O.BMP,stimuli/EmptyFrame.bmp,stimuli/RedFrame.bmp,1,Happy,Male,3,1,1.0,336.38836669921875,336.38836669921875,0.0,340.37701416015625,340.37701416015625,0.0,339.3988952636719,339.3988952636719,0.0,1.0,1.0,0.0,'1',0.5471537113189697,0.5471537113189697,0.0,80.0
Happy,stimuli/20M_HA_O.BMP,stimuli/21M_HA_O.BMP,stimuli/20M_HA_O.BMP,stimuli/EmptyFrame.bmp,stimuli/RedFrame.bmp,2,Happy,Male,3,1,1.0,340.4050598144531,340.4050598144531,0.0,344.3901062011719,344.3901062011719,0.0,343.40533447265625,343.40533447265625,0.0,1.0,1.0,0.0,'2',0.6390017867088318,0.6390017867088318,0.0,81.0
Happy,stimuli/37M_HA_O.BMP,stimuli/37M_HA_O.BMP,stimuli/36M_HA_O.BMP,stimuli/EmptyFrame.bmp,stimuli/RedFrame.bmp,1,Happy,Male,3,1,1.0,344.4148864746094,344.4148864746094,0.0,348.4088439941406,348.4088439941406,0.0,347.41912841796875,347.41912841796875,0.0,1.0,1.0,0.0,'1',0.617462694644928,0.617462694644928,0.0,82.0
Happy,stimuli/43M_HA_O.BMP,stimuli/42M_HA_O.BMP,stimuli/43M_HA_O.BMP,stimuli/EmptyFrame.bmp,stimuli/RedFrame.bmp,2,Happy,Male,3,1,1.0,348.435302734375,348.435302734375,0.0,352.428955078125,352.428955078125,0.0,351.439208984375,351.439208984375,0.0,1.0,1.0,0.0,'2',0.5722095966339111,0.5722095966339111,0.0,83.0
Happy,stimuli/11F_HA_O.BMP,stimuli/10F_HA_O.BMP,stimuli/11F_HA_O.BMP,stimuli/EmptyFrame.bmp,stimuli/RedFrame.bmp,2,Happy,Female,3,1,1.0,352.451171875,352.451171875,0.0,356.4534606933594,356.4534606933594,0.0,355.4534606933594,355.4534606933594,0.0,1.0,1.0,0.0,'2',0.5494629740715027,0.5494629740715027,0.0,84.0
Happy,stimuli/17F_HA_O.BMP,stimuli/16F_HA_O.BMP,stimuli/17F_HA_O.BMP,stimuli/EmptyFrame.bmp,stimuli/RedFrame.bmp,2,Happy,Female,3,1,1.0,356.4770812988281,356.4770812988281,0.0,360.46673583984375,360.46673583984375,0.0,359.488525390625,359.488525390625,0.0,1.0,1.0,0.0,'2',0.6623213887214661,0.6623213887214661,0.0,85.0
Happy,stimuli/15F_HA_O.BMP,stimuli/15F_HA_O.BMP,stimuli/14F_HA_O.BMP,stimuli/EmptyFrame.bmp,stimuli/RedFrame.bmp,1,Happy,Female,3,1,1.0,360.4903869628906,360.4903869628906,0.0,364.4822082519531,364.4822082519531,0.0,363.51287841796875,363.51287841796875,0.0,1.0,1.0,0.0,'1',0.6733065247535706,0.6733065247535706,0.0,86.0
Happy,stimuli/08F_HA_O.BMP,stimuli/08F_HA_O.BMP,stimuli/09F_HA_O.BMP,stimuli/EmptyFrame.bmp,stimuli/RedFrame.bmp,1,Happy,Female,3,1,1.0,364.5051574707031,364.5051574707031,0.0,368.50189208984375,368.50189208984375,0.0,367.50616455078125,367.50616455078125,0.0,1.0,1.0,0.0,'1',0.9135507941246033,0.9135507941246033,0.0,87.0
MatchFaces,stimuli/MatchFaces.bmp,stimuli/EmptyFace.bmp,stimuli/EmptyFace.bmp,stimuli/EmptyFrame.bmp,stimuli/EmptyFrame.bmp,Null,None,None,3,1,1.0,368.71563720703125,368.71563720703125,0.0,372.51580810546875,372.51580810546875,0.0,371.5188293457031,371.5188293457031,0.0,0.0,0.0,0.0,,,,,88.0
Fear,stimuli/34M_FE_O.BMP,stimuli/34M_FE_O.BMP,stimuli/33M_FE_O.BMP,stimuli/EmptyFrame.bmp,stimuli/RedFrame.bmp,1,Fear,Male,3,1,1.0,372.5827331542969,372.5827331542969,0.0,376.5296325683594,376.5296325683594,0.0,375.5395202636719,375.5395202636719,0.0,1.0,1.0,0.0,'1',0.768930971622467,0.768930971622467,0.0,89.0
Fear,stimuli/28M_FE_O.BMP,stimuli/28M_FE_O.BMP,stimuli/25M_FE_O.BMP,stimuli/EmptyFrame.bmp,stimuli/RedFrame.bmp,1,Fear,Male,3,1,1.0,376.5516052246094,376.5516052246094,0.0,380.5508117675781,380.5508117675781,0.0,379.5629577636719,379.5629577636719,0.0,1.0,1.0,0.0,'1',0.5734239220619202,0.5734239220619202,0.0,90.0
Fear,stimuli/11F_FE_O.BMP,stimuli/10F_FE_O.BMP,stimuli/11F_FE_O.BMP,stimuli/EmptyFrame.bmp,stimuli/RedFrame.bmp,2,Fear,Female,3,1,1.0,380.573974609375,380.573974609375,0.0,384.5655212402344,384.5655212402344,0.0,383.580078125,383.580078125,0.0,1.0,1.0,0.0,'2',0.5388880968093872,0.5388880968093872,0.0,91.0
Fear,stimuli/27M_FE_O.BMP,stimuli/26M_FE_O.BMP,stimuli/27M_FE_O.BMP,stimuli/EmptyFrame.bmp,stimuli/RedFrame.bmp,2,Fear,Male,3,1,1.0,384.58514404296875,384.58514404296875,0.0,388.58062744140625,388.58062744140625,0.0,387.59210205078125,387.59210205078125,0.0,1.0,1.0,0.0,'2',0.5821285247802734,0.5821285247802734,0.0,92.0
Fear,stimuli/11F_FE_O.BMP,stimuli/12F_FE_O.BMP,stimuli/11F_FE_O.BMP,stimuli/EmptyFrame.bmp,stimuli/RedFrame.bmp,2,Fear,Female,3,1,1.0,388.6051025390625,388.6051025390625,0.0,392.6028137207031,392.6028137207031,0.0,391.6243591308594,391.6243591308594,0.0,1.0,1.0,0.0,'2',0.6468216776847839,0.6468216776847839,0.0,93.0
Fear,stimuli/31M_FE_O.BMP,stimuli/31M_FE_O.BMP,stimuli/38M_FE_O.BMP,stimuli/EmptyFrame.bmp,stimuli/RedFrame.bmp,1,Fear,Male,3,1,1.0,392.6264343261719,392.6264343261719,0.0,396.63006591796875,396.63006591796875,0.0,395.6336364746094,395.6336364746094,0.0,1.0,1.0,0.0,'1',0.588344395160675,0.588344395160675,0.0,94.0
Fear,stimuli/29M_FE_O.BMP,stimuli/29M_FE_O.BMP,stimuli/24M_FE_O.BMP,stimuli/EmptyFrame.bmp,stimuli/RedFrame.bmp,1,Fear,Male,3,1,1.0,396.6529846191406,396.6529846191406,0.0,400.6458435058594,400.6458435058594,0.0,399.6658020019531,399.6658020019531,0.0,1.0,1.0,0.0,'1',0.5665239095687866,0.5665239095687866,0.0,95.0
Fear,stimuli/25M_FE_O.BMP,stimuli/29M_FE_O.BMP,stimuli/25M_FE_O.BMP,stimuli/EmptyFrame.bmp,stimuli/RedFrame.bmp,2,Fear,Male,3,1,1.0,400.6718444824219,400.6718444824219,0.0,404.6679992675781,404.6679992675781,0.0,403.6770324707031,403.6770324707031,0.0,1.0,1.0,0.0,'2',0.545047402381897,0.545047402381897,0.0,96.0
Fear,stimuli/15F_FE_O.BMP,stimuli/18F_FE_O.BMP,stimuli/15F_FE_O.BMP,stimuli/EmptyFrame.bmp,stimuli/RedFrame.bmp,2,Fear,Female,3,1,1.0,404.6914367675781,404.6914367675781,0.0,408.68719482421875,408.68719482421875,0.0,407.6947021484375,407.6947021484375,0.0,1.0,1.0,0.0,'2',0.5414161086082458,0.5414161086082458,0.0,97.0
Fear,stimuli/09F_FE_O.BMP,stimuli/09F_FE_O.BMP,stimuli/12F_FE_O.BMP,stimuli/EmptyFrame.bmp,stimuli/RedFrame.bmp,1,Fear,Female,3,1,1.0,408.71075439453125,408.71075439453125,0.0,412.700927734375,412.700927734375,0.0,411.7231750488281,411.7231750488281,0.0,1.0,1.0,0.0,'1',0.49754080176353455,0.49754080176353455,0.0,98.0
MatchFaces,stimuli/MatchFaces.bmp,stimuli/EmptyFace.bmp,stimuli/EmptyFace.bmp,stimuli/EmptyFrame.bmp,stimuli/EmptyFrame.bmp,Null,None,None,3,1,1.0,412.9132385253906,412.9132385253906,0.0,416.7108154296875,416.7108154296875,0.0,415.7147521972656,415.7147521972656,0.0,0.0,0.0,0.0,,,,,99.0
Anger,stimuli/23M_AN_O.BMP,stimuli/23M_AN_O.BMP,stimuli/31M_AN_O.BMP,stimuli/EmptyFrame.bmp,stimuli/RedFrame.bmp,1,Anger,Male,3,1,1.0,416.8105163574219,416.8105163574219,0.0,420.7242431640625,420.7242431640625,0.0,419.74468994140625,419.74468994140625,0.0,1.0,1.0,0.0,'1',0.7351707220077515,0.7351707220077515,0.0,100.0
Anger,stimuli/36M_AN_O.BMP,stimuli/37M_AN_O.BMP,stimuli/36M_AN_O.BMP,stimuli/EmptyFrame.bmp,stimuli/RedFrame.bmp,2,Anger,Male,3,1,1.0,420.74761962890625,420.74761962890625,0.0,424.7394714355469,424.7394714355469,0.0,423.7558898925781,423.7558898925781,0.0,1.0,1.0,0.0,'2',0.5548598766326904,0.5548598766326904,0.0,101.0
Anger,stimuli/38M_AN_O.BMP,stimuli/39M_AN_O.BMP,stimuli/38M_AN_O.BMP,stimuli/EmptyFrame.bmp,stimuli/RedFrame.bmp,2,Anger,Male,3,1,1.0,424.7594299316406,424.7594299316406,0.0,428.759521484375,428.759521484375,0.0,427.7724609375,427.7724609375,0.0,1.0,1.0,0.0,'2',1.011135220527649,1.011135220527649,0.0,102.0
Anger,stimuli/02f_an_o.bmp,stimuli/18F_AN_O.BMP,stimuli/02f_an_o.bmp,stimuli/EmptyFrame.bmp,stimuli/RedFrame.bmp,2,Anger,Female,3,1,1.0,428.78533935546875,428.78533935546875,0.0,432.77935791015625,432.77935791015625,0.0,431.7884826660156,431.7884826660156,0.0,1.0,1.0,0.0,'2',0.5345416069030762,0.5345416069030762,0.0,103.0
Anger,stimuli/22M_AN_O.BMP,stimuli/32M_AN_O.BMP,stimuli/22M_AN_O.BMP,stimuli/EmptyFrame.bmp,stimuli/RedFrame.bmp,2,Anger,Male,3,1,1.0,432.79986572265625,432.79986572265625,0.0,436.793212890625,436.793212890625,0.0,435.8051452636719,435.8051452636719,0.0,1.0,1.0,0.0,'2',0.5807920098304749,0.5807920098304749,0.0,104.0
Anger,stimuli/12F_AN_O.BMP,stimuli/12F_AN_O.BMP,stimuli/13F_AN_O.BMP,stimuli/EmptyFrame.bmp,stimuli/RedFrame.bmp,1,Anger,Female,3,1,1.0,436.81494140625,436.81494140625,0.0,440.8090515136719,440.8090515136719,0.0,439.81707763671875,439.81707763671875,0.0,1.0,1.0,0.0,'1',0.6807665824890137,0.6807665824890137,0.0,105.0
Anger,stimuli/05F_AN_O.bmp,stimuli/05F_AN_O.bmp,stimuli/16F_AN_O.BMP,stimuli/EmptyFrame.bmp,stimuli/RedFrame.bmp,1,Anger,Female,3,1,1.0,440.8339538574219,440.8339538574219,0.0,444.8199157714844,444.8199157714844,0.0,443.837890625,443.837890625,0.0,1.0,1.0,0.0,'1',0.5993379950523376,0.5993379950523376,0.0,106.0
Anger,stimuli/21M_AN_O.BMP,stimuli/21M_AN_O.BMP,stimuli/33M_AN_O.BMP,stimuli/EmptyFrame.bmp,stimuli/RedFrame.bmp,1,Anger,Male,3,1,1.0,444.84466552734375,444.84466552734375,0.0,448.83770751953125,448.83770751953125,0.0,447.8426208496094,447.8426208496094,0.0,1.0,1.0,0.0,'1',0.5968586206436157,0.5968586206436157,0.0,107.0
Anger,stimuli/07F_AN_O.BMP,stimuli/07F_AN_O.BMP,stimuli/14F_AN_O.BMP,stimuli/EmptyFrame.bmp,stimuli/RedFrame.bmp,1,Anger,Female,3,1,1.0,448.8623962402344,448.8623962402344,0.0,452.8582763671875,452.8582763671875,0.0,451.8694152832031,451.8694152832031,0.0,1.0,1.0,0.0,'1',0.540149986743927,0.540149986743927,0.0,108.0
Anger,stimuli/10F_AN_O.BMP,stimuli/10F_AN_O.BMP,stimuli/11F_AN_O.BMP,stimuli/EmptyFrame.bmp,stimuli/RedFrame.bmp,1,Anger,Female,3,1,1.0,452.88409423828125,452.88409423828125,0.0,456.8732604980469,456.8732604980469,0.0,455.890625,455.890625,0.0,1.0,1.0,0.0,'1',0.5010247230529785,0.5010247230529785,0.0,109.0

extraInfo
participant,sub013
session,002
date,2025_Jun_18_0906
expName,HaririTask_Ver2
psychopyVersion,3.0.1
frameRate,None
