TrialType,Top,Left,Right,EmptyFrame,SelectedFrame,Correct,Emotion,Gender,TrialLength,FixationLength,n,GCFaceStartTime_mean,GCFaceStartTime_raw,GCFaceStartTime_std,GCPostFaceFixationEndTime_mean,GCPostFaceFixationEndTime_raw,GCPostFaceFixationEndTime_std,GCPostFaceFixationStartTime_mean,GCPostFaceFixationStartTime_raw,GCPostFaceFixationStartTime_std,key_resp_trial.corr_mean,key_resp_trial.corr_raw,key_resp_trial.corr_std,key_resp_trial.keys_raw,key_resp_trial.rt_mean,key_resp_trial.rt_raw,key_resp_trial.rt_std,order
MatchFaces,stimuli/MatchFaces.bmp,stimuli/EmptyFace.bmp,stimuli/EmptyFace.bmp,stimuli/EmptyFrame.bmp,stimuli/EmptyFrame.bmp,Null,None,None,3,1,1.0,15.199128150939941,15.199128150939941,0.0,19.02217674255371,19.02217674255371,0.0,18.039216995239258,18.039216995239258,0.0,0.0,0.0,0.0,,,,,0.0
Anger,stimuli/01F_AN_O.bmp,stimuli/19F_AN_O.BMP,stimuli/01F_AN_O.bmp,stimuli/EmptyFrame.bmp,stimuli/RedFrame.bmp,2,Anger,Female,3,1,1.0,19.212520599365234,19.212520599365234,0.0,23.038938522338867,23.038938522338867,0.0,22.05923080444336,22.05923080444336,0.0,1.0,1.0,0.0,'2',1.705890417098999,1.705890417098999,0.0,1.0
Anger,stimuli/02f_an_o.bmp,stimuli/18F_AN_O.BMP,stimuli/02f_an_o.bmp,stimuli/EmptyFrame.bmp,stimuli/RedFrame.bmp,2,Anger,Female,3,1,1.0,23.065248489379883,23.065248489379883,0.0,27.053001403808594,27.053001403808594,0.0,26.071651458740234,26.071651458740234,0.0,1.0,1.0,0.0,'2',1.241807222366333,1.241807222366333,0.0,2.0
Anger,stimuli/20M_AN_O.BMP,stimuli/34M_AN_O.BMP,stimuli/20M_AN_O.BMP,stimuli/EmptyFrame.bmp,stimuli/RedFrame.bmp,2,Anger,Male,3,1,1.0,27.07805061340332,27.07805061340332,0.0,31.075462341308594,31.075462341308594,0.0,30.081090927124023,30.081090927124023,0.0,1.0,1.0,0.0,'2',1.4955761432647705,1.4955761432647705,0.0,3.0
Anger,stimuli/03F_AN_O.bmp,stimuli/03F_AN_O.bmp,stimuli/17F_AN_O.BMP,stimuli/EmptyFrame.bmp,stimuli/RedFrame.bmp,1,Anger,Female,3,1,1.0,31.1003475189209,31.1003475189209,0.0,35.09707260131836,35.09707260131836,0.0,34.12359619140625,34.12359619140625,0.0,1.0,1.0,0.0,'1',1.4209344387054443,1.4209344387054443,0.0,4.0
Anger,stimuli/21M_AN_O.BMP,stimuli/21M_AN_O.BMP,stimuli/33M_AN_O.BMP,stimuli/EmptyFrame.bmp,stimuli/RedFrame.bmp,1,Anger,Male,3,1,1.0,35.158538818359375,35.158538818359375,0.0,39.11388397216797,39.11388397216797,0.0,38.120567321777344,38.120567321777344,0.0,1.0,1.0,0.0,'1',1.0670249462127686,1.0670249462127686,0.0,5.0
Anger,stimuli/22M_AN_O.BMP,stimuli/32M_AN_O.BMP,stimuli/22M_AN_O.BMP,stimuli/EmptyFrame.bmp,stimuli/RedFrame.bmp,2,Anger,Male,3,1,1.0,39.13701248168945,39.13701248168945,0.0,43.133583068847656,43.133583068847656,0.0,42.1397819519043,42.1397819519043,0.0,1.0,1.0,0.0,'2',0.8690695762634277,0.8690695762634277,0.0,6.0
Anger,stimuli/23M_AN_O.BMP,stimuli/23M_AN_O.BMP,stimuli/31M_AN_O.BMP,stimuli/EmptyFrame.bmp,stimuli/RedFrame.bmp,1,Anger,Male,3,1,1.0,43.160888671875,43.160888671875,0.0,47.144683837890625,47.144683837890625,0.0,46.167823791503906,46.167823791503906,0.0,1.0,1.0,0.0,'1',0.9050217866897583,0.9050217866897583,0.0,7.0
Anger,stimuli/05F_AN_O.bmp,stimuli/05F_AN_O.bmp,stimuli/16F_AN_O.BMP,stimuli/EmptyFrame.bmp,stimuli/RedFrame.bmp,1,Anger,Female,3,1,1.0,47.17231750488281,47.17231750488281,0.0,51.16494369506836,51.16494369506836,0.0,50.171424865722656,50.171424865722656,0.0,1.0,1.0,0.0,'1',0.8988403081893921,0.8988403081893921,0.0,8.0
Anger,stimuli/06F_AN_O.bmp,stimuli/15F_AN_O.BMP,stimuli/06F_AN_O.bmp,stimuli/EmptyFrame.bmp,stimuli/RedFrame.bmp,2,Anger,Female,3,1,1.0,51.19831466674805,51.19831466674805,0.0,55.17413330078125,55.17413330078125,0.0,54.19887924194336,54.19887924194336,0.0,1.0,1.0,0.0,'2',0.7583943009376526,0.7583943009376526,0.0,9.0
Anger,stimuli/24M_AN_O.BMP,stimuli/24M_AN_O.BMP,stimuli/30M_AN_O.BMP,stimuli/EmptyFrame.bmp,stimuli/RedFrame.bmp,1,Anger,Male,3,1,1.0,55.24147033691406,55.24147033691406,0.0,59.19336700439453,59.19336700439453,0.0,58.20949172973633,58.20949172973633,0.0,1.0,1.0,0.0,'1',1.0720056295394897,1.0720056295394897,0.0,10.0
MatchShape,stimuli/MatchShapes.bmp,stimuli/EmptyFace.bmp,stimuli/EmptyFace.bmp,stimuli/EmptyFrame.bmp,stimuli/EmptyFrame.bmp,Null,None,None,3,1,1.0,59.21898651123047,59.21898651123047,0.0,63.19829559326172,63.19829559326172,0.0,62.219970703125,62.219970703125,0.0,0.0,0.0,0.0,,,,,11.0
Shape,stimuli/horizontal.bmp,stimuli/horizontal.bmp,stimuli/circle.bmp,stimuli/EmptyFrame.bmp,stimuli/RedFrame.bmp,1,Shape,None,3,1,1.0,63.236534118652344,63.236534118652344,0.0,67.22283172607422,67.22283172607422,0.0,66.22840881347656,66.22840881347656,0.0,1.0,1.0,0.0,'1',1.343229055404663,1.343229055404663,0.0,12.0
Shape,stimuli/vertical.bmp,stimuli/horizontal.bmp,stimuli/vertical.bmp,stimuli/EmptyFrame.bmp,stimuli/RedFrame.bmp,2,Shape,None,3,1,1.0,67.2492904663086,67.2492904663086,0.0,71.24606323242188,71.24606323242188,0.0,70.2592544555664,70.2592544555664,0.0,0.0,0.0,0.0,'1',0.8041431903839111,0.8041431903839111,0.0,13.0
Shape,stimuli/horizontal.bmp,stimuli/horizontal.bmp,stimuli/vertical.bmp,stimuli/EmptyFrame.bmp,stimuli/RedFrame.bmp,1,Shape,None,3,1,1.0,71.27019500732422,71.27019500732422,0.0,75.26825714111328,75.26825714111328,0.0,74.27001953125,74.27001953125,0.0,1.0,1.0,0.0,'1',0.7217978835105896,0.7217978835105896,0.0,14.0
Shape,stimuli/horizontal.bmp,stimuli/circle.bmp,stimuli/horizontal.bmp,stimuli/EmptyFrame.bmp,stimuli/RedFrame.bmp,2,Shape,None,3,1,1.0,75.29330444335938,75.29330444335938,0.0,79.28541564941406,79.28541564941406,0.0,78.29553985595703,78.29553985595703,0.0,1.0,1.0,0.0,'2',0.844550609588623,0.844550609588623,0.0,15.0
Shape,stimuli/circle.bmp,stimuli/circle.bmp,stimuli/vertical.bmp,stimuli/EmptyFrame.bmp,stimuli/RedFrame.bmp,1,Shape,None,3,1,1.0,79.3056411743164,79.3056411743164,0.0,83.29564666748047,83.29564666748047,0.0,82.32429504394531,82.32429504394531,0.0,1.0,1.0,0.0,'1',0.7451109886169434,0.7451109886169434,0.0,16.0
Shape,stimuli/circle.bmp,stimuli/circle.bmp,stimuli/horizontal.bmp,stimuli/EmptyFrame.bmp,stimuli/RedFrame.bmp,1,Shape,None,3,1,1.0,83.31755828857422,83.31755828857422,0.0,87.31201171875,87.31201171875,0.0,86.32937622070312,86.32937622070312,0.0,1.0,1.0,0.0,'1',0.5383930206298828,0.5383930206298828,0.0,17.0
Shape,stimuli/vertical.bmp,stimuli/circle.bmp,stimuli/vertical.bmp,stimuli/EmptyFrame.bmp,stimuli/RedFrame.bmp,2,Shape,None,3,1,1.0,87.33446502685547,87.33446502685547,0.0,91.33050537109375,91.33050537109375,0.0,90.34520721435547,90.34520721435547,0.0,1.0,1.0,0.0,'2',0.8738089799880981,0.8738089799880981,0.0,18.0
Shape,stimuli/circle.bmp,stimuli/vertical.bmp,stimuli/circle.bmp,stimuli/EmptyFrame.bmp,stimuli/RedFrame.bmp,2,Shape,None,3,1,1.0,91.3528823852539,91.3528823852539,0.0,95.34909057617188,95.34909057617188,0.0,94.36422729492188,94.36422729492188,0.0,1.0,1.0,0.0,'2',0.8976020216941833,0.8976020216941833,0.0,19.0
Shape,stimuli/vertical.bmp,stimuli/horizontal.bmp,stimuli/vertical.bmp,stimuli/EmptyFrame.bmp,stimuli/RedFrame.bmp,2,Shape,None,3,1,1.0,95.37090301513672,95.37090301513672,0.0,99.36216735839844,99.36216735839844,0.0,98.37590026855469,98.37590026855469,0.0,1.0,1.0,0.0,'2',1.2485307455062866,1.2485307455062866,0.0,20.0
Shape,stimuli/vertical.bmp,stimuli/vertical.bmp,stimuli/circle.bmp,stimuli/EmptyFrame.bmp,stimuli/RedFrame.bmp,1,Shape,None,3,1,1.0,99.38050079345703,99.38050079345703,0.0,103.37965393066406,103.37965393066406,0.0,102.3932113647461,102.3932113647461,0.0,1.0,1.0,0.0,'1',1.021737813949585,1.021737813949585,0.0,21.0
MatchFaces,stimuli/MatchFaces.bmp,stimuli/EmptyFace.bmp,stimuli/EmptyFace.bmp,stimuli/EmptyFrame.bmp,stimuli/EmptyFrame.bmp,Null,None,None,3,1,1.0,103.67584991455078,103.67584991455078,0.0,107.38960266113281,107.38960266113281,0.0,106.39401245117188,106.39401245117188,0.0,0.0,0.0,0.0,,,,,22.0
Neutral,stimuli/20M_NE_C.BMP,stimuli/21M_NE_C.BMP,stimuli/20M_NE_C.BMP,stimuli/EmptyFrame.bmp,stimuli/RedFrame.bmp,2,Neutral,Male,3,1,1.0,107.50848388671875,107.50848388671875,0.0,111.41148376464844,111.41148376464844,0.0,110.42338562011719,110.42338562011719,0.0,1.0,1.0,0.0,'2',1.249316930770874,1.249316930770874,0.0,23.0
Neutral,stimuli/01F_NE_C.bmp,stimuli/01F_NE_C.bmp,stimuli/02F_NE_C.bmp,stimuli/EmptyFrame.bmp,stimuli/RedFrame.bmp,1,Neutral,Female,3,1,1.0,111.43623352050781,111.43623352050781,0.0,115.43146514892578,115.43146514892578,0.0,114.44983673095703,114.44983673095703,0.0,1.0,1.0,0.0,'1',0.9151843190193176,0.9151843190193176,0.0,24.0
Neutral,stimuli/22M_NE_C.BMP,stimuli/23M_NE_C.BMP,stimuli/22M_NE_C.BMP,stimuli/EmptyFrame.bmp,stimuli/RedFrame.bmp,2,Neutral,Male,3,1,1.0,115.49019622802734,115.49019622802734,0.0,119.4531021118164,119.4531021118164,0.0,118.46559143066406,118.46559143066406,0.0,1.0,1.0,0.0,'2',0.7751033902168274,0.7751033902168274,0.0,25.0
Neutral,stimuli/24M_NE_C.BMP,stimuli/24M_NE_C.BMP,stimuli/25M_NE_C.BMP,stimuli/EmptyFrame.bmp,stimuli/RedFrame.bmp,1,Neutral,Male,3,1,1.0,119.47715759277344,119.47715759277344,0.0,123.47006225585938,123.47006225585938,0.0,122.49088287353516,122.49088287353516,0.0,1.0,1.0,0.0,'1',0.6793841123580933,0.6793841123580933,0.0,26.0
Neutral,stimuli/03F_NE_C.bmp,stimuli/05F_NE_C.bmp,stimuli/03F_NE_C.bmp,stimuli/EmptyFrame.bmp,stimuli/RedFrame.bmp,2,Neutral,Female,3,1,1.0,123.49381256103516,123.49381256103516,0.0,127.48883819580078,127.48883819580078,0.0,126.5023193359375,126.5023193359375,0.0,1.0,1.0,0.0,'2',0.7593560218811035,0.7593560218811035,0.0,27.0
Neutral,stimuli/26M_NE_C.BMP,stimuli/26M_NE_C.BMP,stimuli/27M_NE_C.BMP,stimuli/EmptyFrame.bmp,stimuli/RedFrame.bmp,1,Neutral,Male,3,1,1.0,127.5155258178711,127.5155258178711,0.0,131.5056610107422,131.5056610107422,0.0,130.51844787597656,130.51844787597656,0.0,1.0,1.0,0.0,'1',0.6618614792823792,0.6618614792823792,0.0,28.0
Neutral,stimuli/06F_NE_C.bmp,stimuli/07F_NE_C.BMP,stimuli/06F_NE_C.bmp,stimuli/EmptyFrame.bmp,stimuli/RedFrame.bmp,2,Neutral,Female,3,1,1.0,131.53807067871094,131.53807067871094,0.0,135.51951599121094,135.51951599121094,0.0,134.5301971435547,134.5301971435547,0.0,1.0,1.0,0.0,'2',0.9855518937110901,0.9855518937110901,0.0,29.0
Neutral,stimuli/08F_NE_C.BMP,stimuli/08F_NE_C.BMP,stimuli/09F_NE_C.BMP,stimuli/EmptyFrame.bmp,stimuli/RedFrame.bmp,1,Neutral,Female,3,1,1.0,135.58164978027344,135.58164978027344,0.0,139.53530883789062,139.53530883789062,0.0,138.5386962890625,138.5386962890625,0.0,1.0,1.0,0.0,'1',1.3067455291748047,1.3067455291748047,0.0,30.0
Neutral,stimuli/28M_NE_C.BMP,stimuli/29M_NE_C.BMP,stimuli/28M_NE_C.BMP,stimuli/EmptyFrame.bmp,stimuli/RedFrame.bmp,2,Neutral,Male,3,1,1.0,139.55966186523438,139.55966186523438,0.0,143.55409240722656,143.55409240722656,0.0,142.56309509277344,142.56309509277344,0.0,1.0,1.0,0.0,'2',0.8559970855712891,0.8559970855712891,0.0,31.0
Neutral,stimuli/10F_NE_C.BMP,stimuli/10F_NE_C.BMP,stimuli/06F_NE_C.bmp,stimuli/EmptyFrame.bmp,stimuli/RedFrame.bmp,1,Neutral,Female,3,1,1.0,143.57730102539062,143.57730102539062,0.0,147.57034301757812,147.57034301757812,0.0,146.59051513671875,146.59051513671875,0.0,1.0,1.0,0.0,'1',0.6643655300140381,0.6643655300140381,0.0,32.0
MatchFaces,stimuli/MatchFaces.bmp,stimuli/EmptyFace.bmp,stimuli/EmptyFace.bmp,stimuli/EmptyFrame.bmp,stimuli/EmptyFrame.bmp,Null,None,None,3,1,1.0,147.76638793945312,147.76638793945312,0.0,151.57254028320312,151.57254028320312,0.0,150.5774688720703,150.5774688720703,0.0,0.0,0.0,0.0,,,,,33.0
Fear,stimuli/07F_FE_O.BMP,stimuli/07F_FE_O.BMP,stimuli/14F_FE_O.BMP,stimuli/EmptyFrame.bmp,stimuli/RedFrame.bmp,1,Fear,Female,3,1,1.0,151.64418029785156,151.64418029785156,0.0,155.5891876220703,155.5891876220703,0.0,154.6004180908203,154.6004180908203,0.0,1.0,1.0,0.0,'1',0.8952507972717285,0.8952507972717285,0.0,34.0
Fear,stimuli/25M_FE_O.BMP,stimuli/29M_FE_O.BMP,stimuli/25M_FE_O.BMP,stimuli/EmptyFrame.bmp,stimuli/RedFrame.bmp,2,Fear,Male,3,1,1.0,155.65164184570312,155.65164184570312,0.0,159.60675048828125,159.60675048828125,0.0,158.61599731445312,158.61599731445312,0.0,1.0,1.0,0.0,'2',0.8164567947387695,0.8164567947387695,0.0,35.0
Fear,stimuli/26M_FE_O.BMP,stimuli/26M_FE_O.BMP,stimuli/28M_FE_O.BMP,stimuli/EmptyFrame.bmp,stimuli/RedFrame.bmp,1,Fear,Male,3,1,1.0,159.62991333007812,159.62991333007812,0.0,163.61972045898438,163.61972045898438,0.0,162.64373779296875,162.64373779296875,0.0,1.0,1.0,0.0,'1',0.8270974159240723,0.8270974159240723,0.0,36.0
Fear,stimuli/08F_FE_O.BMP,stimuli/13F_FE_O.BMP,stimuli/08F_FE_O.BMP,stimuli/EmptyFrame.bmp,stimuli/RedFrame.bmp,2,Fear,Female,3,1,1.0,163.64239501953125,163.64239501953125,0.0,167.639404296875,167.639404296875,0.0,166.64596557617188,166.64596557617188,0.0,1.0,1.0,0.0,'2',0.7973623275756836,0.7973623275756836,0.0,37.0
Fear,stimuli/09F_FE_O.BMP,stimuli/09F_FE_O.BMP,stimuli/12F_FE_O.BMP,stimuli/EmptyFrame.bmp,stimuli/RedFrame.bmp,1,Fear,Female,3,1,1.0,167.703369140625,167.703369140625,0.0,171.6602783203125,171.6602783203125,0.0,170.67962646484375,170.67962646484375,0.0,1.0,1.0,0.0,'1',0.7497918009757996,0.7497918009757996,0.0,38.0
Fear,stimuli/27M_FE_O.BMP,stimuli/26M_FE_O.BMP,stimuli/27M_FE_O.BMP,stimuli/EmptyFrame.bmp,stimuli/RedFrame.bmp,2,Fear,Male,3,1,1.0,171.7186737060547,171.7186737060547,0.0,175.67276000976562,175.67276000976562,0.0,174.69131469726562,174.69131469726562,0.0,1.0,1.0,0.0,'2',0.7844266891479492,0.7844266891479492,0.0,39.0
Fear,stimuli/28M_FE_O.BMP,stimuli/28M_FE_O.BMP,stimuli/25M_FE_O.BMP,stimuli/EmptyFrame.bmp,stimuli/RedFrame.bmp,1,Fear,Male,3,1,1.0,175.69773864746094,175.69773864746094,0.0,179.68978881835938,179.68978881835938,0.0,178.69561767578125,178.69561767578125,0.0,1.0,1.0,0.0,'1',0.9024302959442139,0.9024302959442139,0.0,40.0
Fear,stimuli/10F_FE_O.BMP,stimuli/11F_FE_O.BMP,stimuli/10F_FE_O.BMP,stimuli/EmptyFrame.bmp,stimuli/RedFrame.bmp,2,Fear,Female,3,1,1.0,179.7168731689453,179.7168731689453,0.0,183.70265197753906,183.70265197753906,0.0,182.72689819335938,182.72689819335938,0.0,1.0,1.0,0.0,'2',0.6556065082550049,0.6556065082550049,0.0,41.0
Fear,stimuli/29M_FE_O.BMP,stimuli/29M_FE_O.BMP,stimuli/24M_FE_O.BMP,stimuli/EmptyFrame.bmp,stimuli/RedFrame.bmp,1,Fear,Male,3,1,1.0,183.7257843017578,183.7257843017578,0.0,187.729248046875,187.729248046875,0.0,186.73106384277344,186.73106384277344,0.0,1.0,1.0,0.0,'1',0.7587100267410278,0.7587100267410278,0.0,42.0
Fear,stimuli/11F_FE_O.BMP,stimuli/10F_FE_O.BMP,stimuli/11F_FE_O.BMP,stimuli/EmptyFrame.bmp,stimuli/RedFrame.bmp,2,Fear,Female,3,1,1.0,187.75425720214844,187.75425720214844,0.0,191.7415313720703,191.7415313720703,0.0,190.7666778564453,190.7666778564453,0.0,1.0,1.0,0.0,'2',1.016005039215088,1.016005039215088,0.0,43.0
MatchFaces,stimuli/MatchFaces.bmp,stimuli/EmptyFace.bmp,stimuli/EmptyFace.bmp,stimuli/EmptyFrame.bmp,stimuli/EmptyFrame.bmp,Null,None,None,3,1,1.0,191.88165283203125,191.88165283203125,0.0,195.75152587890625,195.75152587890625,0.0,194.74954223632812,194.74954223632812,0.0,0.0,0.0,0.0,,,,,44.0
Happy,stimuli/19F_HA_O.BMP,stimuli/19F_HA_O.BMP,stimuli/18F_HA_O.BMP,stimuli/EmptyFrame.bmp,stimuli/RedFrame.bmp,1,Happy,Female,3,1,1.0,195.82028198242188,195.82028198242188,0.0,199.77252197265625,199.77252197265625,0.0,198.77822875976562,198.77822875976562,0.0,1.0,1.0,0.0,'1',0.913965106010437,0.913965106010437,0.0,45.0
Happy,stimuli/17F_HA_O.BMP,stimuli/16F_HA_O.BMP,stimuli/17F_HA_O.BMP,stimuli/EmptyFrame.bmp,stimuli/RedFrame.bmp,2,Happy,Female,3,1,1.0,199.79640197753906,199.79640197753906,0.0,203.7909393310547,203.7909393310547,0.0,202.80979919433594,202.80979919433594,0.0,1.0,1.0,0.0,'2',0.9428753852844238,0.9428753852844238,0.0,46.0
Happy,stimuli/43M_HA_O.BMP,stimuli/42M_HA_O.BMP,stimuli/43M_HA_O.BMP,stimuli/EmptyFrame.bmp,stimuli/RedFrame.bmp,2,Happy,Male,3,1,1.0,203.81663513183594,203.81663513183594,0.0,207.81153869628906,207.81153869628906,0.0,206.8203887939453,206.8203887939453,0.0,1.0,1.0,0.0,'2',0.6903378963470459,0.6903378963470459,0.0,47.0
Happy,stimuli/41M_HA_O.BMP,stimuli/41M_HA_O.BMP,stimuli/40M_HA_O.BMP,stimuli/EmptyFrame.bmp,stimuli/RedFrame.bmp,1,Happy,Male,3,1,1.0,207.84034729003906,207.84034729003906,0.0,211.82521057128906,211.82521057128906,0.0,210.83860778808594,210.83860778808594,0.0,1.0,1.0,0.0,'1',0.7586066126823425,0.7586066126823425,0.0,48.0
Happy,stimuli/15F_HA_O.BMP,stimuli/15F_HA_O.BMP,stimuli/14F_HA_O.BMP,stimuli/EmptyFrame.bmp,stimuli/RedFrame.bmp,1,Happy,Female,3,1,1.0,211.85157775878906,211.85157775878906,0.0,215.83961486816406,215.83961486816406,0.0,214.8472442626953,214.8472442626953,0.0,1.0,1.0,0.0,'1',0.8710489869117737,0.8710489869117737,0.0,49.0
Happy,stimuli/13F_HA_O.BMP,stimuli/13F_HA_O.BMP,stimuli/12F_HA_O.BMP,stimuli/EmptyFrame.bmp,stimuli/RedFrame.bmp,1,Happy,Female,3,1,1.0,215.86964416503906,215.86964416503906,0.0,219.85716247558594,219.85716247558594,0.0,218.8669891357422,218.8669891357422,0.0,1.0,1.0,0.0,'1',0.8844038844108582,0.8844038844108582,0.0,50.0
Happy,stimuli/39M_HA_O.BMP,stimuli/38M_HA_O.BMP,stimuli/39M_HA_O.BMP,stimuli/EmptyFrame.bmp,stimuli/RedFrame.bmp,2,Happy,Male,3,1,1.0,219.8836212158203,219.8836212158203,0.0,223.87893676757812,223.87893676757812,0.0,222.882568359375,222.882568359375,0.0,1.0,1.0,0.0,'2',0.7379270195960999,0.7379270195960999,0.0,51.0
Happy,stimuli/37M_HA_O.BMP,stimuli/37M_HA_O.BMP,stimuli/36M_HA_O.BMP,stimuli/EmptyFrame.bmp,stimuli/RedFrame.bmp,1,Happy,Male,3,1,1.0,223.90560913085938,223.90560913085938,0.0,227.9004669189453,227.9004669189453,0.0,226.91465759277344,226.91465759277344,0.0,1.0,1.0,0.0,'1',0.8681169152259827,0.8681169152259827,0.0,52.0
Happy,stimuli/35M_HA_O.BMP,stimuli/34M_HA_O.BMP,stimuli/35M_HA_O.BMP,stimuli/EmptyFrame.bmp,stimuli/RedFrame.bmp,2,Happy,Male,3,1,1.0,227.9241180419922,227.9241180419922,0.0,231.91580200195312,231.91580200195312,0.0,230.92587280273438,230.92587280273438,0.0,1.0,1.0,0.0,'2',0.7093963027000427,0.7093963027000427,0.0,53.0
Happy,stimuli/11F_HA_O.BMP,stimuli/10F_HA_O.BMP,stimuli/11F_HA_O.BMP,stimuli/EmptyFrame.bmp,stimuli/RedFrame.bmp,2,Happy,Female,3,1,1.0,231.9417724609375,231.9417724609375,0.0,235.9294891357422,235.9294891357422,0.0,234.95230102539062,234.95230102539062,0.0,1.0,1.0,0.0,'2',0.7636061906814575,0.7636061906814575,0.0,54.0
Match Shape,stimuli/MatchShapes.bmp,stimuli/EmptyFace.bmp,stimuli/EmptyFace.bmp,stimuli/EmptyFrame.bmp,stimuli/EmptyFrame.bmp,Null,None,None,3,1,1.0,235.95437622070312,235.95437622070312,0.0,239.93531799316406,239.93531799316406,0.0,238.94569396972656,238.94569396972656,0.0,0.0,0.0,0.0,,,,,55.0
Shape,stimuli/circle.bmp,stimuli/vertical.bmp,stimuli/circle.bmp,stimuli/EmptyFrame.bmp,stimuli/RedFrame.bmp,2,Shape,None,3,1,1.0,239.97523498535156,239.97523498535156,0.0,243.95816040039062,243.95816040039062,0.0,242.96905517578125,242.96905517578125,0.0,1.0,1.0,0.0,'2',0.5832595825195312,0.5832595825195312,0.0,56.0
Shape,stimuli/horizontal.bmp,stimuli/circle.bmp,stimuli/horizontal.bmp,stimuli/EmptyFrame.bmp,stimuli/RedFrame.bmp,2,Shape,None,3,1,1.0,243.98562622070312,243.98562622070312,0.0,247.97044372558594,247.97044372558594,0.0,246.99191284179688,246.99191284179688,0.0,1.0,1.0,0.0,'2',0.7298092246055603,0.7298092246055603,0.0,57.0
Shape,stimuli/vertical.bmp,stimuli/vertical.bmp,stimuli/horizontal.bmp,stimuli/EmptyFrame.bmp,stimuli/RedFrame.bmp,1,Shape,None,3,1,1.0,247.99497985839844,247.99497985839844,0.0,251.98143005371094,251.98143005371094,0.0,251.00328063964844,251.00328063964844,0.0,1.0,1.0,0.0,'1',0.641761302947998,0.641761302947998,0.0,58.0
Shape,stimuli/horizontal.bmp,stimuli/circle.bmp,stimuli/horizontal.bmp,stimuli/EmptyFrame.bmp,stimuli/RedFrame.bmp,2,Shape,None,3,1,1.0,252.00587463378906,252.00587463378906,0.0,255.99900817871094,255.99900817871094,0.0,255.0088348388672,255.0088348388672,0.0,1.0,1.0,0.0,'2',0.5805097818374634,0.5805097818374634,0.0,59.0
Shape,stimuli/horizontal.bmp,stimuli/horizontal.bmp,stimuli/vertical.bmp,stimuli/EmptyFrame.bmp,stimuli/RedFrame.bmp,1,Shape,None,3,1,1.0,256.0228271484375,256.0228271484375,0.0,260.0146179199219,260.0146179199219,0.0,259.0296936035156,259.0296936035156,0.0,1.0,1.0,0.0,'1',0.7090181708335876,0.7090181708335876,0.0,60.0
Shape,stimuli/vertical.bmp,stimuli/vertical.bmp,stimuli/circle.bmp,stimuli/EmptyFrame.bmp,stimuli/RedFrame.bmp,1,Shape,None,3,1,1.0,260.0379943847656,260.0379943847656,0.0,264.0362243652344,264.0362243652344,0.0,263.0539855957031,263.0539855957031,0.0,1.0,1.0,0.0,'1',0.6043742895126343,0.6043742895126343,0.0,61.0
Shape,stimuli/circle.bmp,stimuli/horizontal.bmp,stimuli/circle.bmp,stimuli/EmptyFrame.bmp,stimuli/RedFrame.bmp,2,Shape,None,3,1,1.0,264.0627746582031,264.0627746582031,0.0,268.0512390136719,268.0512390136719,0.0,267.0583190917969,267.0583190917969,0.0,1.0,1.0,0.0,'2',0.7725092768669128,0.7725092768669128,0.0,62.0
Shape,stimuli/circle.bmp,stimuli/vertical.bmp,stimuli/circle.bmp,stimuli/EmptyFrame.bmp,stimuli/RedFrame.bmp,2,Shape,None,3,1,1.0,268.07489013671875,268.07489013671875,0.0,272.0716857910156,272.0716857910156,0.0,271.0941162109375,271.0941162109375,0.0,1.0,1.0,0.0,'2',0.8439155220985413,0.8439155220985413,0.0,63.0
Shape,stimuli/vertical.bmp,stimuli/vertical.bmp,stimuli/horizontal.bmp,stimuli/EmptyFrame.bmp,stimuli/RedFrame.bmp,1,Shape,None,3,1,1.0,272.0975036621094,272.0975036621094,0.0,276.0884704589844,276.0884704589844,0.0,275.1041259765625,275.1041259765625,0.0,1.0,1.0,0.0,'1',1.1429685354232788,1.1429685354232788,0.0,64.0
Shape,stimuli/horizontal.bmp,stimuli/horizontal.bmp,stimuli/circle.bmp,stimuli/EmptyFrame.bmp,stimuli/RedFrame.bmp,1,Shape,None,3,1,1.0,276.11419677734375,276.11419677734375,0.0,280.10723876953125,280.10723876953125,0.0,279.1246643066406,279.1246643066406,0.0,1.0,1.0,0.0,'1',0.5811449289321899,0.5811449289321899,0.0,65.0
MatchFaces,stimuli/MatchFaces.bmp,stimuli/EmptyFace.bmp,stimuli/EmptyFace.bmp,stimuli/EmptyFrame.bmp,stimuli/EmptyFrame.bmp,Null,None,None,3,1,1.0,280.2514343261719,280.2514343261719,0.0,284.1158142089844,284.1158142089844,0.0,283.12347412109375,283.12347412109375,0.0,0.0,0.0,0.0,,,,,66.0
Anger,stimuli/42M_AN_O.BMP,stimuli/42M_AN_O.BMP,stimuli/43M_AN_O.BMP,stimuli/EmptyFrame.bmp,stimuli/RedFrame.bmp,1,Anger,Male,3,1,1.0,284.1809387207031,284.1809387207031,0.0,288.1417541503906,288.1417541503906,0.0,287.149658203125,287.149658203125,0.0,1.0,1.0,0.0,'1',0.7366924285888672,0.7366924285888672,0.0,67.0
Anger,stimuli/07F_AN_O.BMP,stimuli/07F_AN_O.BMP,stimuli/14F_AN_O.BMP,stimuli/EmptyFrame.bmp,stimuli/RedFrame.bmp,1,Anger,Female,3,1,1.0,288.20697021484375,288.20697021484375,0.0,292.161376953125,292.161376953125,0.0,291.1813659667969,291.1813659667969,0.0,1.0,1.0,0.0,'1',0.717746376991272,0.717746376991272,0.0,68.0
Anger,stimuli/40M_AN_O.BMP,stimuli/41M_AN_O.BMP,stimuli/40M_AN_O.BMP,stimuli/EmptyFrame.bmp,stimuli/RedFrame.bmp,2,Anger,Male,3,1,1.0,292.1921691894531,292.1921691894531,0.0,296.17913818359375,296.17913818359375,0.0,295.1983337402344,295.1983337402344,0.0,1.0,1.0,0.0,'2',0.6653040051460266,0.6653040051460266,0.0,69.0
Anger,stimuli/38M_AN_O.BMP,stimuli/39M_AN_O.BMP,stimuli/38M_AN_O.BMP,stimuli/EmptyFrame.bmp,stimuli/RedFrame.bmp,2,Anger,Male,3,1,1.0,296.2069396972656,296.2069396972656,0.0,300.20037841796875,300.20037841796875,0.0,299.2127990722656,299.2127990722656,0.0,1.0,1.0,0.0,'2',0.889926016330719,0.889926016330719,0.0,70.0
Anger,stimuli/08F_AN_O.BMP,stimuli/08F_AN_O.BMP,stimuli/13F_AN_O.BMP,stimuli/EmptyFrame.bmp,stimuli/RedFrame.bmp,1,Anger,Female,3,1,1.0,300.2284851074219,300.2284851074219,0.0,304.220947265625,304.220947265625,0.0,303.2370910644531,303.2370910644531,0.0,1.0,1.0,0.0,'1',0.6222938299179077,0.6222938299179077,0.0,71.0
Anger,stimuli/36M_AN_O.BMP,stimuli/37M_AN_O.BMP,stimuli/36M_AN_O.BMP,stimuli/EmptyFrame.bmp,stimuli/RedFrame.bmp,2,Anger,Male,3,1,1.0,304.25885009765625,304.25885009765625,0.0,308.24957275390625,308.24957275390625,0.0,307.26153564453125,307.26153564453125,0.0,1.0,1.0,0.0,'2',0.8084077835083008,0.8084077835083008,0.0,72.0
Anger,stimuli/09F_AN_O.BMP,stimuli/12F_AN_O.BMP,stimuli/09F_AN_O.BMP,stimuli/EmptyFrame.bmp,stimuli/RedFrame.bmp,2,Anger,Female,3,1,1.0,308.2789001464844,308.2789001464844,0.0,312.2706604003906,312.2706604003906,0.0,311.2767028808594,311.2767028808594,0.0,1.0,1.0,0.0,'2',0.589329183101654,0.589329183101654,0.0,73.0
Anger,stimuli/34M_AN_O.BMP,stimuli/35M_AN_O.BMP,stimuli/34M_AN_O.BMP,stimuli/EmptyFrame.bmp,stimuli/RedFrame.bmp,2,Anger,Male,3,1,1.0,312.3029479980469,312.3029479980469,0.0,316.2915344238281,316.2915344238281,0.0,315.31134033203125,315.31134033203125,0.0,1.0,1.0,0.0,'2',0.6200429797172546,0.6200429797172546,0.0,74.0
Anger,stimuli/10F_AN_O.BMP,stimuli/10F_AN_O.BMP,stimuli/11F_AN_O.BMP,stimuli/EmptyFrame.bmp,stimuli/RedFrame.bmp,1,Anger,Female,3,1,1.0,316.3240051269531,316.3240051269531,0.0,320.30279541015625,320.30279541015625,0.0,319.32611083984375,319.32611083984375,0.0,1.0,1.0,0.0,'1',0.595346212387085,0.595346212387085,0.0,75.0
Anger,stimuli/12F_AN_O.BMP,stimuli/12F_AN_O.BMP,stimuli/13F_AN_O.BMP,stimuli/EmptyFrame.bmp,stimuli/RedFrame.bmp,1,Anger,Female,3,1,1.0,320.32373046875,320.32373046875,0.0,324.32501220703125,324.32501220703125,0.0,323.3438720703125,323.3438720703125,0.0,1.0,1.0,0.0,'1',0.9313212037086487,0.9313212037086487,0.0,76.0
MatchFaces,stimuli/MatchFaces.bmp,stimuli/EmptyFace.bmp,stimuli/EmptyFace.bmp,stimuli/EmptyFrame.bmp,stimuli/EmptyFrame.bmp,Null,None,None,3,1,1.0,324.4582824707031,324.4582824707031,0.0,328.337158203125,328.337158203125,0.0,327.33746337890625,327.33746337890625,0.0,0.0,0.0,0.0,,,,,77.0
Happy,stimuli/20M_HA_O.BMP,stimuli/21M_HA_O.BMP,stimuli/20M_HA_O.BMP,stimuli/EmptyFrame.bmp,stimuli/RedFrame.bmp,2,Happy,Male,3,1,1.0,328.38470458984375,328.38470458984375,0.0,332.355712890625,332.355712890625,0.0,331.3673400878906,331.3673400878906,0.0,1.0,1.0,0.0,'2',0.6975787878036499,0.6975787878036499,0.0,78.0
Happy,stimuli/01F_HA_O.bmp,stimuli/01F_HA_O.bmp,stimuli/02F_HA_O.bmp,stimuli/EmptyFrame.bmp,stimuli/RedFrame.bmp,1,Happy,Female,3,1,1.0,332.3846130371094,332.3846130371094,0.0,336.3712463378906,336.3712463378906,0.0,335.3805236816406,335.3805236816406,0.0,1.0,1.0,0.0,'1',0.5112866759300232,0.5112866759300232,0.0,79.0
Happy,stimuli/22M_HA_O.BMP,stimuli/23M_HA_O.BMP,stimuli/22M_HA_O.BMP,stimuli/EmptyFrame.bmp,stimuli/RedFrame.bmp,2,Happy,Male,3,1,1.0,336.4027099609375,336.4027099609375,0.0,340.3905944824219,340.3905944824219,0.0,339.4051818847656,339.4051818847656,0.0,1.0,1.0,0.0,'2',0.6806588172912598,0.6806588172912598,0.0,80.0
Happy,stimuli/24M_HA_O.BMP,stimuli/24M_HA_O.BMP,stimuli/25M_HA_O.BMP,stimuli/EmptyFrame.bmp,stimuli/RedFrame.bmp,1,Happy,Male,3,1,1.0,340.42022705078125,340.42022705078125,0.0,344.4174499511719,344.4174499511719,0.0,343.4137878417969,343.4137878417969,0.0,1.0,1.0,0.0,'1',0.7541000247001648,0.7541000247001648,0.0,81.0
Happy,stimuli/03F_HA_O.bmp,stimuli/05F_HA_O.bmp,stimuli/03F_HA_O.bmp,stimuli/EmptyFrame.bmp,stimuli/RedFrame.bmp,2,Happy,Female,3,1,1.0,344.4443664550781,344.4443664550781,0.0,348.440185546875,348.440185546875,0.0,347.4480285644531,347.4480285644531,0.0,1.0,1.0,0.0,'2',0.532392680644989,0.532392680644989,0.0,82.0
Happy,stimuli/26M_HA_O.BMP,stimuli/26M_HA_O.BMP,stimuli/27M_HA_O.BMP,stimuli/EmptyFrame.bmp,stimuli/RedFrame.bmp,1,Happy,Male,3,1,1.0,348.4680480957031,348.4680480957031,0.0,352.4535827636719,352.4535827636719,0.0,351.4665832519531,351.4665832519531,0.0,1.0,1.0,0.0,'1',0.6047526001930237,0.6047526001930237,0.0,83.0
Happy,stimuli/06F_HA_O.bmp,stimuli/07F_HA_O.BMP,stimuli/06F_HA_O.bmp,stimuli/EmptyFrame.bmp,stimuli/RedFrame.bmp,2,Happy,Female,3,1,1.0,352.4825134277344,352.4825134277344,0.0,356.4820251464844,356.4820251464844,0.0,355.47869873046875,355.47869873046875,0.0,1.0,1.0,0.0,'2',0.9830539226531982,0.9830539226531982,0.0,84.0
Happy,stimuli/08F_HA_O.BMP,stimuli/08F_HA_O.BMP,stimuli/09F_HA_O.BMP,stimuli/EmptyFrame.bmp,stimuli/RedFrame.bmp,1,Happy,Female,3,1,1.0,356.5088806152344,356.5088806152344,0.0,360.4975280761719,360.4975280761719,0.0,359.5158386230469,359.5158386230469,0.0,1.0,1.0,0.0,'1',0.563622772693634,0.563622772693634,0.0,85.0
Happy,stimuli/28M_HA_O.BMP,stimuli/29M_HA_O.BMP,stimuli/28M_HA_O.BMP,stimuli/EmptyFrame.bmp,stimuli/RedFrame.bmp,2,Happy,Male,3,1,1.0,360.521484375,360.521484375,0.0,364.5095520019531,364.5095520019531,0.0,363.54510498046875,363.54510498046875,0.0,1.0,1.0,0.0,'2',0.9103171229362488,0.9103171229362488,0.0,86.0
Happy,stimuli/10F_HA_O.BMP,stimuli/10F_HA_O.BMP,stimuli/06F_HA_O.bmp,stimuli/EmptyFrame.bmp,stimuli/RedFrame.bmp,1,Happy,Female,3,1,1.0,364.53167724609375,364.53167724609375,0.0,368.5274963378906,368.5274963378906,0.0,367.541259765625,367.541259765625,0.0,1.0,1.0,0.0,'1',0.5922659039497375,0.5922659039497375,0.0,87.0
MatchFaces,stimuli/MatchFaces.bmp,stimuli/EmptyFace.bmp,stimuli/EmptyFace.bmp,stimuli/EmptyFrame.bmp,stimuli/EmptyFrame.bmp,Null,None,None,3,1,1.0,368.6646728515625,368.6646728515625,0.0,372.5330810546875,372.5330810546875,0.0,371.5539245605469,371.5539245605469,0.0,0.0,0.0,0.0,,,,,88.0
Neutral,stimuli/07F_NE_C.BMP,stimuli/07F_NE_C.BMP,stimuli/14F_NE_C.BMP,stimuli/EmptyFrame.bmp,stimuli/RedFrame.bmp,1,Neutral,Female,3,1,1.0,372.5860900878906,372.5860900878906,0.0,376.5517272949219,376.5517272949219,0.0,375.5535888671875,375.5535888671875,0.0,1.0,1.0,0.0,'1',0.8501021862030029,0.8501021862030029,0.0,89.0
Neutral,stimuli/25M_NE_C.BMP,stimuli/29M_NE_C.BMP,stimuli/25M_NE_C.BMP,stimuli/EmptyFrame.bmp,stimuli/RedFrame.bmp,2,Neutral,Male,3,1,1.0,376.5739440917969,376.5739440917969,0.0,380.56842041015625,380.56842041015625,0.0,379.57989501953125,379.57989501953125,0.0,1.0,1.0,0.0,'2',0.5930740237236023,0.5930740237236023,0.0,90.0
Neutral,stimuli/26M_NE_C.BMP,stimuli/26M_NE_C.BMP,stimuli/28M_NE_C.BMP,stimuli/EmptyFrame.bmp,stimuli/RedFrame.bmp,1,Neutral,Male,3,1,1.0,380.5942077636719,380.5942077636719,0.0,384.5857238769531,384.5857238769531,0.0,383.5929260253906,383.5929260253906,0.0,1.0,1.0,0.0,'1',0.5310909152030945,0.5310909152030945,0.0,91.0
Neutral,stimuli/08F_NE_C.BMP,stimuli/13F_NE_C.BMP,stimuli/08F_NE_C.BMP,stimuli/EmptyFrame.bmp,stimuli/RedFrame.bmp,2,Neutral,Female,3,1,1.0,384.6087646484375,384.6087646484375,0.0,388.60882568359375,388.60882568359375,0.0,387.6172180175781,387.6172180175781,0.0,1.0,1.0,0.0,'2',0.6648014783859253,0.6648014783859253,0.0,92.0
Neutral,stimuli/09F_NE_C.BMP,stimuli/09F_NE_C.BMP,stimuli/12F_NE_C.BMP,stimuli/EmptyFrame.bmp,stimuli/RedFrame.bmp,1,Neutral,Female,3,1,1.0,388.64007568359375,388.64007568359375,0.0,392.6237487792969,392.6237487792969,0.0,391.6458435058594,391.6458435058594,0.0,1.0,1.0,0.0,'1',0.5989722013473511,0.5989722013473511,0.0,93.0
Neutral,stimuli/27M_NE_C.BMP,stimuli/26M_NE_C.BMP,stimuli/27M_NE_C.BMP,stimuli/EmptyFrame.bmp,stimuli/RedFrame.bmp,2,Neutral,Male,3,1,1.0,392.6501159667969,392.6501159667969,0.0,396.64410400390625,396.64410400390625,0.0,395.6528015136719,395.6528015136719,0.0,1.0,1.0,0.0,'2',0.7247655987739563,0.7247655987739563,0.0,94.0
Neutral,stimuli/28M_NE_C.BMP,stimuli/28M_NE_C.BMP,stimuli/25M_NE_C.BMP,stimuli/EmptyFrame.bmp,stimuli/RedFrame.bmp,1,Neutral,Male,3,1,1.0,396.6681213378906,396.6681213378906,0.0,400.6634521484375,400.6634521484375,0.0,399.6766052246094,399.6766052246094,0.0,1.0,1.0,0.0,'1',0.7585036754608154,0.7585036754608154,0.0,95.0
Neutral,stimuli/10F_NE_C.BMP,stimuli/11F_NE_C.BMP,stimuli/10F_NE_C.BMP,stimuli/EmptyFrame.bmp,stimuli/RedFrame.bmp,2,Neutral,Female,3,1,1.0,400.6901550292969,400.6901550292969,0.0,404.6757507324219,404.6757507324219,0.0,403.69805908203125,403.69805908203125,0.0,1.0,1.0,0.0,'2',0.4957098960876465,0.4957098960876465,0.0,96.0
Neutral,stimuli/29M_NE_C.BMP,stimuli/29M_NE_C.BMP,stimuli/24M_NE_C.BMP,stimuli/EmptyFrame.bmp,stimuli/RedFrame.bmp,1,Neutral,Male,3,1,1.0,404.6975402832031,404.6975402832031,0.0,408.6903076171875,408.6903076171875,0.0,407.7103576660156,407.7103576660156,0.0,1.0,1.0,0.0,'1',0.6701689958572388,0.6701689958572388,0.0,97.0
Neutral,stimuli/11F_NE_C.BMP,stimuli/10F_NE_C.BMP,stimuli/11F_NE_C.BMP,stimuli/EmptyFrame.bmp,stimuli/RedFrame.bmp,2,Neutral,Female,3,1,1.0,408.7127380371094,408.7127380371094,0.0,412.701904296875,412.701904296875,0.0,411.718994140625,411.718994140625,0.0,1.0,1.0,0.0,'2',0.5406869053840637,0.5406869053840637,0.0,98.0
MatchFaces,stimuli/MatchFaces.bmp,stimuli/EmptyFace.bmp,stimuli/EmptyFace.bmp,stimuli/EmptyFrame.bmp,stimuli/EmptyFrame.bmp,Null,None,None,3,1,1.0,412.8432312011719,412.8432312011719,0.0,416.7063293457031,416.7063293457031,0.0,415.7167663574219,415.7167663574219,0.0,0.0,0.0,0.0,,,,,99.0
Fear,stimuli/23M_FE_O.BMP,stimuli/23M_FE_O.BMP,stimuli/24M_FE_O.BMP,stimuli/EmptyFrame.bmp,stimuli/RedFrame.bmp,1,Fear,Male,3,1,1.0,416.7808532714844,416.7808532714844,0.0,420.7276306152344,420.7276306152344,0.0,419.73046875,419.73046875,0.0,1.0,1.0,0.0,'1',0.8427652716636658,0.8427652716636658,0.0,100.0
Fear,stimuli/19F_FE_O.BMP,stimuli/18F_FE_O.BMP,stimuli/19F_FE_O.BMP,stimuli/EmptyFrame.bmp,stimuli/RedFrame.bmp,2,Fear,Female,3,1,1.0,420.75604248046875,420.75604248046875,0.0,424.74566650390625,424.74566650390625,0.0,423.7498779296875,423.7498779296875,0.0,1.0,1.0,0.0,'2',0.559878408908844,0.559878408908844,0.0,101.0
Fear,stimuli/17F_FE_O.BMP,stimuli/17F_FE_O.BMP,stimuli/16F_FE_O.BMP,stimuli/EmptyFrame.bmp,stimuli/RedFrame.bmp,1,Fear,Female,3,1,1.0,424.76898193359375,424.76898193359375,0.0,428.7687683105469,428.7687683105469,0.0,427.77783203125,427.77783203125,0.0,1.0,1.0,0.0,'1',0.6859644055366516,0.6859644055366516,0.0,102.0
Fear,stimuli/15F_FE_O.BMP,stimuli/18F_FE_O.BMP,stimuli/15F_FE_O.BMP,stimuli/EmptyFrame.bmp,stimuli/RedFrame.bmp,2,Fear,Female,3,1,1.0,428.801513671875,428.801513671875,0.0,432.78839111328125,432.78839111328125,0.0,431.7980041503906,431.7980041503906,0.0,1.0,1.0,0.0,'2',0.6386715769767761,0.6386715769767761,0.0,103.0
Fear,stimuli/21M_FE_O.BMP,stimuli/21M_FE_O.BMP,stimuli/22M_FE_O.BMP,stimuli/EmptyFrame.bmp,stimuli/RedFrame.bmp,1,Fear,Male,3,1,1.0,432.8151550292969,432.8151550292969,0.0,436.79949951171875,436.79949951171875,0.0,435.82666015625,435.82666015625,0.0,1.0,1.0,0.0,'1',0.5926287174224854,0.5926287174224854,0.0,104.0
Fear,stimuli/29M_FE_O.BMP,stimuli/30M_FE_O.BMP,stimuli/29M_FE_O.BMP,stimuli/EmptyFrame.bmp,stimuli/RedFrame.bmp,2,Fear,Male,3,1,1.0,436.8277587890625,436.8277587890625,0.0,440.817626953125,440.817626953125,0.0,439.82818603515625,439.82818603515625,0.0,1.0,1.0,0.0,'2',0.5600607991218567,0.5600607991218567,0.0,105.0
Fear,stimuli/31M_FE_O.BMP,stimuli/31M_FE_O.BMP,stimuli/38M_FE_O.BMP,stimuli/EmptyFrame.bmp,stimuli/RedFrame.bmp,1,Fear,Male,3,1,1.0,440.8448791503906,440.8448791503906,0.0,444.8389892578125,444.8389892578125,0.0,443.84832763671875,443.84832763671875,0.0,1.0,1.0,0.0,'1',0.5261359214782715,0.5261359214782715,0.0,106.0
Fear,stimuli/09F_FE_O.BMP,stimuli/07F_FE_O.BMP,stimuli/09F_FE_O.BMP,stimuli/EmptyFrame.bmp,stimuli/RedFrame.bmp,2,Fear,Female,3,1,1.0,444.8627624511719,444.8627624511719,0.0,448.8517150878906,448.8517150878906,0.0,447.8701171875,447.8701171875,0.0,1.0,1.0,0.0,'2',0.5616685748100281,0.5616685748100281,0.0,107.0
Fear,stimuli/11F_FE_O.BMP,stimuli/12F_FE_O.BMP,stimuli/11F_FE_O.BMP,stimuli/EmptyFrame.bmp,stimuli/RedFrame.bmp,2,Fear,Female,3,1,1.0,448.87579345703125,448.87579345703125,0.0,452.8716125488281,452.8716125488281,0.0,451.882080078125,451.882080078125,0.0,1.0,1.0,0.0,'2',0.6318374276161194,0.6318374276161194,0.0,108.0
Fear,stimuli/34M_FE_O.BMP,stimuli/34M_FE_O.BMP,stimuli/33M_FE_O.BMP,stimuli/EmptyFrame.bmp,stimuli/RedFrame.bmp,1,Fear,Male,3,1,1.0,452.89910888671875,452.89910888671875,0.0,456.88934326171875,456.88934326171875,0.0,455.9019775390625,455.9019775390625,0.0,1.0,1.0,0.0,'1',0.6331542134284973,0.6331542134284973,0.0,109.0

extraInfo
participant,sub013
session,001
date,2025_Jun_17_0858
expName,HaririTask_Ver1
psychopyVersion,3.0.1
frameRate,None
