TrialType,Top,Left,Right,EmptyFrame,SelectedFrame,Correct,Emotion,Gender,TrialLength,FixationLength,n,GCFaceStartTime_mean,GCFaceStartTime_raw,GCFaceStartTime_std,GCPostFaceFixationEndTime_mean,GCPostFaceFixationEndTime_raw,GCPostFaceFixationEndTime_std,GCPostFaceFixationStartTime_mean,GCPostFaceFixationStartTime_raw,GCPostFaceFixationStartTime_std,key_resp_trial.corr_mean,key_resp_trial.corr_raw,key_resp_trial.corr_std,key_resp_trial.keys_raw,key_resp_trial.rt_mean,key_resp_trial.rt_raw,key_resp_trial.rt_std,order
MatchFaces,stimuli/MatchFaces.bmp,stimuli/EmptyFace.bmp,stimuli/EmptyFace.bmp,stimuli/EmptyFrame.bmp,stimuli/EmptyFrame.bmp,Null,None,None,3,1,1.0,15.503299713134766,15.503299713134766,0.0,19.044523239135742,19.044523239135742,0.0,18.05087661743164,18.05087661743164,0.0,0.0,0.0,0.0,,,,,0.0
Fear,stimuli/23M_FE_O.BMP,stimuli/23M_FE_O.BMP,stimuli/24M_FE_O.BMP,stimuli/EmptyFrame.bmp,stimuli/RedFrame.bmp,1,Fear,Male,3,1,1.0,19.25411605834961,19.25411605834961,0.0,23.055278778076172,23.055278778076172,0.0,22.073646545410156,22.073646545410156,0.0,1.0,1.0,0.0,'1',1.8812153339385986,1.8812153339385986,0.0,1.0
Fear,stimuli/19F_FE_O.BMP,stimuli/18F_FE_O.BMP,stimuli/19F_FE_O.BMP,stimuli/EmptyFrame.bmp,stimuli/RedFrame.bmp,2,Fear,Female,3,1,1.0,23.075712203979492,23.075712203979492,0.0,27.071922302246094,27.071922302246094,0.0,26.101484298706055,26.101484298706055,0.0,1.0,1.0,0.0,'2',1.2410293817520142,1.2410293817520142,0.0,2.0
Fear,stimuli/17F_FE_O.BMP,stimuli/17F_FE_O.BMP,stimuli/16F_FE_O.BMP,stimuli/EmptyFrame.bmp,stimuli/RedFrame.bmp,1,Fear,Female,3,1,1.0,27.096506118774414,27.096506118774414,0.0,31.09036636352539,31.09036636352539,0.0,30.110841751098633,30.110841751098633,0.0,1.0,1.0,0.0,'1',1.1786632537841797,1.1786632537841797,0.0,3.0
Fear,stimuli/21M_FE_O.BMP,stimuli/21M_FE_O.BMP,stimuli/22M_FE_O.BMP,stimuli/EmptyFrame.bmp,stimuli/RedFrame.bmp,1,Fear,Male,3,1,1.0,31.118579864501953,31.118579864501953,0.0,35.10756301879883,35.10756301879883,0.0,34.12240982055664,34.12240982055664,0.0,1.0,1.0,0.0,'1',1.1734000444412231,1.1734000444412231,0.0,4.0
Fear,stimuli/09F_FE_O.BMP,stimuli/07F_FE_O.BMP,stimuli/09F_FE_O.BMP,stimuli/EmptyFrame.bmp,stimuli/RedFrame.bmp,2,Fear,Female,3,1,1.0,35.132118225097656,35.132118225097656,0.0,39.120147705078125,39.120147705078125,0.0,38.13580322265625,38.13580322265625,0.0,1.0,1.0,0.0,'2',1.3491841554641724,1.3491841554641724,0.0,5.0
Fear,stimuli/08F_FE_O.BMP,stimuli/13F_FE_O.BMP,stimuli/08F_FE_O.BMP,stimuli/EmptyFrame.bmp,stimuli/RedFrame.bmp,2,Fear,Female,3,1,1.0,39.14439392089844,39.14439392089844,0.0,43.1352653503418,43.1352653503418,0.0,42.153255462646484,42.153255462646484,0.0,1.0,1.0,0.0,'2',1.1314325332641602,1.1314325332641602,0.0,6.0
Fear,stimuli/07F_FE_O.BMP,stimuli/07F_FE_O.BMP,stimuli/14F_FE_O.BMP,stimuli/EmptyFrame.bmp,stimuli/RedFrame.bmp,1,Fear,Female,3,1,1.0,43.16011047363281,43.16011047363281,0.0,47.15788269042969,47.15788269042969,0.0,46.16194152832031,46.16194152832031,0.0,1.0,1.0,0.0,'1',1.148794412612915,1.148794412612915,0.0,7.0
Fear,stimuli/26M_FE_O.BMP,stimuli/26M_FE_O.BMP,stimuli/28M_FE_O.BMP,stimuli/EmptyFrame.bmp,stimuli/RedFrame.bmp,1,Fear,Male,3,1,1.0,47.1865234375,47.1865234375,0.0,51.17387008666992,51.17387008666992,0.0,50.19792556762695,50.19792556762695,0.0,1.0,1.0,0.0,'1',1.273032546043396,1.273032546043396,0.0,8.0
Fear,stimuli/10F_FE_O.BMP,stimuli/11F_FE_O.BMP,stimuli/10F_FE_O.BMP,stimuli/EmptyFrame.bmp,stimuli/RedFrame.bmp,2,Fear,Female,3,1,1.0,51.199615478515625,51.199615478515625,0.0,55.18692398071289,55.18692398071289,0.0,54.205078125,54.205078125,0.0,1.0,1.0,0.0,'2',0.871269702911377,0.871269702911377,0.0,9.0
Fear,stimuli/29M_FE_O.BMP,stimuli/30M_FE_O.BMP,stimuli/29M_FE_O.BMP,stimuli/EmptyFrame.bmp,stimuli/RedFrame.bmp,2,Fear,Male,3,1,1.0,55.21550369262695,55.21550369262695,0.0,59.2127685546875,59.2127685546875,0.0,58.2093620300293,58.2093620300293,0.0,1.0,1.0,0.0,'2',0.9187368750572205,0.9187368750572205,0.0,10.0
MatchFaces,stimuli/MatchFaces.bmp,stimuli/EmptyFace.bmp,stimuli/EmptyFace.bmp,stimuli/EmptyFrame.bmp,stimuli/EmptyFrame.bmp,Null,None,None,3,1,1.0,59.51761245727539,59.51761245727539,0.0,63.22385025024414,63.22385025024414,0.0,62.22724533081055,62.22724533081055,0.0,0.0,0.0,0.0,,,,,11.0
Neutral,stimuli/07F_NE_C.BMP,stimuli/07F_NE_C.BMP,stimuli/14F_NE_C.BMP,stimuli/EmptyFrame.bmp,stimuli/RedFrame.bmp,1,Neutral,Female,3,1,1.0,63.295738220214844,63.295738220214844,0.0,67.24210357666016,67.24210357666016,0.0,66.25051879882812,66.25051879882812,0.0,1.0,1.0,0.0,'1',0.914595901966095,0.914595901966095,0.0,12.0
Neutral,stimuli/25M_NE_C.BMP,stimuli/29M_NE_C.BMP,stimuli/25M_NE_C.BMP,stimuli/EmptyFrame.bmp,stimuli/RedFrame.bmp,2,Neutral,Male,3,1,1.0,67.26822662353516,67.26822662353516,0.0,71.26332092285156,71.26332092285156,0.0,70.26760864257812,70.26760864257812,0.0,1.0,1.0,0.0,'2',1.0152355432510376,1.0152355432510376,0.0,13.0
Neutral,stimuli/26M_NE_C.BMP,stimuli/26M_NE_C.BMP,stimuli/28M_NE_C.BMP,stimuli/EmptyFrame.bmp,stimuli/RedFrame.bmp,1,Neutral,Male,3,1,1.0,71.32780456542969,71.32780456542969,0.0,75.28108978271484,75.28108978271484,0.0,74.29884338378906,74.29884338378906,0.0,1.0,1.0,0.0,'1',0.7382270097732544,0.7382270097732544,0.0,14.0
Neutral,stimuli/08F_NE_C.BMP,stimuli/13F_NE_C.BMP,stimuli/08F_NE_C.BMP,stimuli/EmptyFrame.bmp,stimuli/RedFrame.bmp,2,Neutral,Female,3,1,1.0,75.31021881103516,75.31021881103516,0.0,79.29167938232422,79.29167938232422,0.0,78.31425476074219,78.31425476074219,0.0,1.0,1.0,0.0,'2',1.014258623123169,1.014258623123169,0.0,15.0
Neutral,stimuli/09F_NE_C.BMP,stimuli/09F_NE_C.BMP,stimuli/12F_NE_C.BMP,stimuli/EmptyFrame.bmp,stimuli/RedFrame.bmp,1,Neutral,Female,3,1,1.0,79.31939697265625,79.31939697265625,0.0,83.31494140625,83.31494140625,0.0,82.32121276855469,82.32121276855469,0.0,1.0,1.0,0.0,'1',0.6835653781890869,0.6835653781890869,0.0,16.0
Neutral,stimuli/27M_NE_C.BMP,stimuli/26M_NE_C.BMP,stimuli/27M_NE_C.BMP,stimuli/EmptyFrame.bmp,stimuli/RedFrame.bmp,2,Neutral,Male,3,1,1.0,83.34134674072266,83.34134674072266,0.0,87.32904052734375,87.32904052734375,0.0,86.34420776367188,86.34420776367188,0.0,1.0,1.0,0.0,'2',0.8725681900978088,0.8725681900978088,0.0,17.0
Neutral,stimuli/28M_NE_C.BMP,stimuli/28M_NE_C.BMP,stimuli/25M_NE_C.BMP,stimuli/EmptyFrame.bmp,stimuli/RedFrame.bmp,1,Neutral,Male,3,1,1.0,87.35326385498047,87.35326385498047,0.0,91.34146881103516,91.34146881103516,0.0,90.35049438476562,90.35049438476562,0.0,1.0,1.0,0.0,'1',0.7408326864242554,0.7408326864242554,0.0,18.0
Neutral,stimuli/10F_NE_C.BMP,stimuli/11F_NE_C.BMP,stimuli/10F_NE_C.BMP,stimuli/EmptyFrame.bmp,stimuli/RedFrame.bmp,2,Neutral,Female,3,1,1.0,91.37358856201172,91.37358856201172,0.0,95.35215759277344,95.35215759277344,0.0,94.36902618408203,94.36902618408203,0.0,1.0,1.0,0.0,'2',0.6902368068695068,0.6902368068695068,0.0,19.0
Neutral,stimuli/29M_NE_C.BMP,stimuli/29M_NE_C.BMP,stimuli/24M_NE_C.BMP,stimuli/EmptyFrame.bmp,stimuli/RedFrame.bmp,1,Neutral,Male,3,1,1.0,95.3814697265625,95.3814697265625,0.0,99.36441040039062,99.36441040039062,0.0,98.38629913330078,98.38629913330078,0.0,1.0,1.0,0.0,'1',0.6688178181648254,0.6688178181648254,0.0,20.0
Neutral,stimuli/11F_NE_C.BMP,stimuli/10F_NE_C.BMP,stimuli/11F_NE_C.BMP,stimuli/EmptyFrame.bmp,stimuli/RedFrame.bmp,2,Neutral,Female,3,1,1.0,99.38984680175781,99.38984680175781,0.0,103.38094329833984,103.38094329833984,0.0,102.3990249633789,102.3990249633789,0.0,1.0,1.0,0.0,'2',0.753575325012207,0.753575325012207,0.0,21.0
MatchShape,stimuli/MatchShapes.bmp,stimuli/EmptyFace.bmp,stimuli/EmptyFace.bmp,stimuli/EmptyFrame.bmp,stimuli/EmptyFrame.bmp,Null,None,None,3,1,1.0,103.40760803222656,103.40760803222656,0.0,107.38575744628906,107.38575744628906,0.0,106.39630889892578,106.39630889892578,0.0,0.0,0.0,0.0,,,,,22.0
Shape,stimuli/circle.bmp,stimuli/vertical.bmp,stimuli/circle.bmp,stimuli/EmptyFrame.bmp,stimuli/RedFrame.bmp,2,Shape,None,3,1,1.0,107.42970275878906,107.42970275878906,0.0,111.40258026123047,111.40258026123047,0.0,110.41073608398438,110.41073608398438,0.0,1.0,1.0,0.0,'2',0.9291077256202698,0.9291077256202698,0.0,23.0
Shape,stimuli/horizontal.bmp,stimuli/circle.bmp,stimuli/horizontal.bmp,stimuli/EmptyFrame.bmp,stimuli/RedFrame.bmp,2,Shape,None,3,1,1.0,111.4329833984375,111.4329833984375,0.0,115.41028594970703,115.41028594970703,0.0,114.42630004882812,114.42630004882812,0.0,1.0,1.0,0.0,'2',0.8179731965065002,0.8179731965065002,0.0,24.0
Shape,stimuli/circle.bmp,stimuli/vertical.bmp,stimuli/circle.bmp,stimuli/EmptyFrame.bmp,stimuli/RedFrame.bmp,2,Shape,None,3,1,1.0,115.4335708618164,115.4335708618164,0.0,119.43065643310547,119.43065643310547,0.0,118.4452896118164,118.4452896118164,0.0,1.0,1.0,0.0,'2',0.7984960079193115,0.7984960079193115,0.0,25.0
Shape,stimuli/vertical.bmp,stimuli/circle.bmp,stimuli/vertical.bmp,stimuli/EmptyFrame.bmp,stimuli/RedFrame.bmp,2,Shape,None,3,1,1.0,119.4538345336914,119.4538345336914,0.0,123.44843292236328,123.44843292236328,0.0,122.45719146728516,122.45719146728516,0.0,1.0,1.0,0.0,'2',0.8938243985176086,0.8938243985176086,0.0,26.0
Shape,stimuli/vertical.bmp,stimuli/horizontal.bmp,stimuli/vertical.bmp,stimuli/EmptyFrame.bmp,stimuli/RedFrame.bmp,2,Shape,None,3,1,1.0,123.46900177001953,123.46900177001953,0.0,127.46570587158203,127.46570587158203,0.0,126.48149108886719,126.48149108886719,0.0,1.0,1.0,0.0,'2',1.0411758422851562,1.0411758422851562,0.0,27.0
Shape,stimuli/horizontal.bmp,stimuli/horizontal.bmp,stimuli/vertical.bmp,stimuli/EmptyFrame.bmp,stimuli/RedFrame.bmp,1,Shape,None,3,1,1.0,127.4872817993164,127.4872817993164,0.0,131.48202514648438,131.48202514648438,0.0,130.49737548828125,130.49737548828125,0.0,1.0,1.0,0.0,'1',1.016690731048584,1.016690731048584,0.0,28.0
Shape,stimuli/horizontal.bmp,stimuli/circle.bmp,stimuli/horizontal.bmp,stimuli/EmptyFrame.bmp,stimuli/RedFrame.bmp,2,Shape,None,3,1,1.0,131.50320434570312,131.50320434570312,0.0,135.5041046142578,135.5041046142578,0.0,134.50921630859375,134.50921630859375,0.0,1.0,1.0,0.0,'2',0.7898561954498291,0.7898561954498291,0.0,29.0
Shape,stimuli/circle.bmp,stimuli/circle.bmp,stimuli/vertical.bmp,stimuli/EmptyFrame.bmp,stimuli/RedFrame.bmp,1,Shape,None,3,1,1.0,135.52528381347656,135.52528381347656,0.0,139.51461791992188,139.51461791992188,0.0,138.5308074951172,138.5308074951172,0.0,1.0,1.0,0.0,'1',0.7841885089874268,0.7841885089874268,0.0,30.0
Shape,stimuli/vertical.bmp,stimuli/horizontal.bmp,stimuli/vertical.bmp,stimuli/EmptyFrame.bmp,stimuli/RedFrame.bmp,2,Shape,None,3,1,1.0,139.5359344482422,139.5359344482422,0.0,143.5319061279297,143.5319061279297,0.0,142.5433349609375,142.5433349609375,0.0,1.0,1.0,0.0,'2',0.9127094745635986,0.9127094745635986,0.0,31.0
Shape,stimuli/vertical.bmp,stimuli/vertical.bmp,stimuli/horizontal.bmp,stimuli/EmptyFrame.bmp,stimuli/RedFrame.bmp,1,Shape,None,3,1,1.0,143.55345153808594,143.55345153808594,0.0,147.54283142089844,147.54283142089844,0.0,146.56520080566406,146.56520080566406,0.0,1.0,1.0,0.0,'1',0.838367223739624,0.838367223739624,0.0,32.0
MatchFaces,stimuli/MatchFaces.bmp,stimuli/EmptyFace.bmp,stimuli/EmptyFace.bmp,stimuli/EmptyFrame.bmp,stimuli/EmptyFrame.bmp,Null,None,None,3,1,1.0,147.7515411376953,147.7515411376953,0.0,151.5446014404297,151.5446014404297,0.0,150.55694580078125,150.55694580078125,0.0,0.0,0.0,0.0,,,,,33.0
Anger,stimuli/20M_AN_O.BMP,stimuli/34M_AN_O.BMP,stimuli/20M_AN_O.BMP,stimuli/EmptyFrame.bmp,stimuli/RedFrame.bmp,2,Anger,Male,3,1,1.0,151.61997985839844,151.61997985839844,0.0,155.56301879882812,155.56301879882812,0.0,154.5795135498047,154.5795135498047,0.0,1.0,1.0,0.0,'2',0.7197408080101013,0.7197408080101013,0.0,34.0
Anger,stimuli/01F_AN_O.bmp,stimuli/19F_AN_O.BMP,stimuli/01F_AN_O.bmp,stimuli/EmptyFrame.bmp,stimuli/RedFrame.bmp,2,Anger,Female,3,1,1.0,155.5914764404297,155.5914764404297,0.0,159.58010864257812,159.58010864257812,0.0,158.59205627441406,158.59205627441406,0.0,1.0,1.0,0.0,'2',0.6488292217254639,0.6488292217254639,0.0,35.0
Anger,stimuli/06F_AN_O.bmp,stimuli/15F_AN_O.BMP,stimuli/06F_AN_O.bmp,stimuli/EmptyFrame.bmp,stimuli/RedFrame.bmp,2,Anger,Female,3,1,1.0,159.6132049560547,159.6132049560547,0.0,163.60317993164062,163.60317993164062,0.0,162.6375274658203,162.6375274658203,0.0,1.0,1.0,0.0,'2',0.8046684861183167,0.8046684861183167,0.0,36.0
Anger,stimuli/42M_AN_O.BMP,stimuli/42M_AN_O.BMP,stimuli/43M_AN_O.BMP,stimuli/EmptyFrame.bmp,stimuli/RedFrame.bmp,1,Anger,Male,3,1,1.0,163.64447021484375,163.64447021484375,0.0,167.6148223876953,167.6148223876953,0.0,166.63819885253906,166.63819885253906,0.0,1.0,1.0,0.0,'1',0.7027283906936646,0.7027283906936646,0.0,37.0
Anger,stimuli/40M_AN_O.BMP,stimuli/41M_AN_O.BMP,stimuli/40M_AN_O.BMP,stimuli/EmptyFrame.bmp,stimuli/RedFrame.bmp,2,Anger,Male,3,1,1.0,167.64169311523438,167.64169311523438,0.0,171.62757873535156,171.62757873535156,0.0,170.6451416015625,170.6451416015625,0.0,1.0,1.0,0.0,'2',0.6597902178764343,0.6597902178764343,0.0,38.0
Anger,stimuli/08F_AN_O.BMP,stimuli/08F_AN_O.BMP,stimuli/13F_AN_O.BMP,stimuli/EmptyFrame.bmp,stimuli/RedFrame.bmp,1,Anger,Female,3,1,1.0,171.65585327148438,171.65585327148438,0.0,175.65196228027344,175.65196228027344,0.0,174.66278076171875,174.66278076171875,0.0,1.0,1.0,0.0,'1',0.7363870143890381,0.7363870143890381,0.0,39.0
Anger,stimuli/09F_AN_O.BMP,stimuli/12F_AN_O.BMP,stimuli/09F_AN_O.BMP,stimuli/EmptyFrame.bmp,stimuli/RedFrame.bmp,2,Anger,Female,3,1,1.0,175.6801300048828,175.6801300048828,0.0,179.66293334960938,179.66293334960938,0.0,178.6822509765625,178.6822509765625,0.0,1.0,1.0,0.0,'2',0.7049006223678589,0.7049006223678589,0.0,40.0
Anger,stimuli/34M_AN_O.BMP,stimuli/35M_AN_O.BMP,stimuli/34M_AN_O.BMP,stimuli/EmptyFrame.bmp,stimuli/RedFrame.bmp,2,Anger,Male,3,1,1.0,179.691162109375,179.691162109375,0.0,183.68109130859375,183.68109130859375,0.0,182.6978759765625,182.6978759765625,0.0,1.0,1.0,0.0,'2',0.8449200987815857,0.8449200987815857,0.0,41.0
Anger,stimuli/24M_AN_O.BMP,stimuli/24M_AN_O.BMP,stimuli/30M_AN_O.BMP,stimuli/EmptyFrame.bmp,stimuli/RedFrame.bmp,1,Anger,Male,3,1,1.0,183.70675659179688,183.70675659179688,0.0,187.69944763183594,187.69944763183594,0.0,186.70997619628906,186.70997619628906,0.0,1.0,1.0,0.0,'1',0.7952107787132263,0.7952107787132263,0.0,42.0
Anger,stimuli/03F_AN_O.bmp,stimuli/03F_AN_O.bmp,stimuli/17F_AN_O.BMP,stimuli/EmptyFrame.bmp,stimuli/RedFrame.bmp,1,Anger,Female,3,1,1.0,187.7288360595703,187.7288360595703,0.0,191.71697998046875,191.71697998046875,0.0,190.7290496826172,190.7290496826172,0.0,1.0,1.0,0.0,'1',0.8483664989471436,0.8483664989471436,0.0,43.0
MatchFaces,stimuli/MatchFaces.bmp,stimuli/EmptyFace.bmp,stimuli/EmptyFace.bmp,stimuli/EmptyFrame.bmp,stimuli/EmptyFrame.bmp,Null,None,None,3,1,1.0,192.10848999023438,192.10848999023438,0.0,195.72186279296875,195.72186279296875,0.0,194.72901916503906,194.72901916503906,0.0,0.0,0.0,0.0,,,,,44.0
Happy,stimuli/06F_HA_O.bmp,stimuli/07F_HA_O.BMP,stimuli/06F_HA_O.bmp,stimuli/EmptyFrame.bmp,stimuli/RedFrame.bmp,2,Happy,Female,3,1,1.0,195.80377197265625,195.80377197265625,0.0,199.73867797851562,199.73867797851562,0.0,198.76048278808594,198.76048278808594,0.0,1.0,1.0,0.0,'2',0.8110306262969971,0.8110306262969971,0.0,45.0
Happy,stimuli/13F_HA_O.BMP,stimuli/13F_HA_O.BMP,stimuli/12F_HA_O.BMP,stimuli/EmptyFrame.bmp,stimuli/RedFrame.bmp,1,Happy,Female,3,1,1.0,199.76295471191406,199.76295471191406,0.0,203.7655487060547,203.7655487060547,0.0,202.770751953125,202.770751953125,0.0,1.0,1.0,0.0,'1',0.6447159051895142,0.6447159051895142,0.0,46.0
Happy,stimuli/41M_HA_O.BMP,stimuli/41M_HA_O.BMP,stimuli/40M_HA_O.BMP,stimuli/EmptyFrame.bmp,stimuli/RedFrame.bmp,1,Happy,Male,3,1,1.0,203.79330444335938,203.79330444335938,0.0,207.77598571777344,207.77598571777344,0.0,206.79837036132812,206.79837036132812,0.0,1.0,1.0,0.0,'1',0.6272389888763428,0.6272389888763428,0.0,47.0
Happy,stimuli/03F_HA_O.bmp,stimuli/05F_HA_O.bmp,stimuli/03F_HA_O.bmp,stimuli/EmptyFrame.bmp,stimuli/RedFrame.bmp,2,Happy,Female,3,1,1.0,207.8015899658203,207.8015899658203,0.0,211.79458618164062,211.79458618164062,0.0,210.81915283203125,210.81915283203125,0.0,1.0,1.0,0.0,'2',0.8259080052375793,0.8259080052375793,0.0,48.0
Happy,stimuli/24M_HA_O.BMP,stimuli/24M_HA_O.BMP,stimuli/25M_HA_O.BMP,stimuli/EmptyFrame.bmp,stimuli/RedFrame.bmp,1,Happy,Male,3,1,1.0,211.82516479492188,211.82516479492188,0.0,215.81703186035156,215.81703186035156,0.0,214.82235717773438,214.82235717773438,0.0,1.0,1.0,0.0,'1',0.6020510196685791,0.6020510196685791,0.0,49.0
Happy,stimuli/19F_HA_O.BMP,stimuli/19F_HA_O.BMP,stimuli/18F_HA_O.BMP,stimuli/EmptyFrame.bmp,stimuli/RedFrame.bmp,1,Happy,Female,3,1,1.0,215.8501739501953,215.8501739501953,0.0,219.8372344970703,219.8372344970703,0.0,218.84326171875,218.84326171875,0.0,1.0,1.0,0.0,'1',0.8658745884895325,0.8658745884895325,0.0,50.0
Happy,stimuli/01F_HA_O.bmp,stimuli/01F_HA_O.bmp,stimuli/02F_HA_O.bmp,stimuli/EmptyFrame.bmp,stimuli/RedFrame.bmp,1,Happy,Female,3,1,1.0,219.8630828857422,219.8630828857422,0.0,223.85421752929688,223.85421752929688,0.0,222.8664093017578,222.8664093017578,0.0,1.0,1.0,0.0,'1',0.7792741060256958,0.7792741060256958,0.0,51.0
Happy,stimuli/22M_HA_O.BMP,stimuli/23M_HA_O.BMP,stimuli/22M_HA_O.BMP,stimuli/EmptyFrame.bmp,stimuli/RedFrame.bmp,2,Happy,Male,3,1,1.0,223.88026428222656,223.88026428222656,0.0,227.87628173828125,227.87628173828125,0.0,226.8875274658203,226.8875274658203,0.0,1.0,1.0,0.0,'2',1.0589524507522583,1.0589524507522583,0.0,52.0
Happy,stimuli/35M_HA_O.BMP,stimuli/34M_HA_O.BMP,stimuli/35M_HA_O.BMP,stimuli/EmptyFrame.bmp,stimuli/RedFrame.bmp,2,Happy,Male,3,1,1.0,227.90367126464844,227.90367126464844,0.0,231.89279174804688,231.89279174804688,0.0,230.90464782714844,230.90464782714844,0.0,1.0,1.0,0.0,'2',0.724602997303009,0.724602997303009,0.0,53.0
Happy,stimuli/39M_HA_O.BMP,stimuli/38M_HA_O.BMP,stimuli/39M_HA_O.BMP,stimuli/EmptyFrame.bmp,stimuli/RedFrame.bmp,2,Happy,Male,3,1,1.0,231.92184448242188,231.92184448242188,0.0,235.91957092285156,235.91957092285156,0.0,234.9238739013672,234.9238739013672,0.0,1.0,1.0,0.0,'2',0.9331144094467163,0.9331144094467163,0.0,54.0
Match Shape,stimuli/MatchShapes.bmp,stimuli/EmptyFace.bmp,stimuli/EmptyFace.bmp,stimuli/EmptyFrame.bmp,stimuli/EmptyFrame.bmp,Null,None,None,3,1,1.0,235.9482879638672,235.9482879638672,0.0,239.92343139648438,239.92343139648438,0.0,238.92999267578125,238.92999267578125,0.0,0.0,0.0,0.0,,,,,55.0
Shape,stimuli/horizontal.bmp,stimuli/horizontal.bmp,stimuli/vertical.bmp,stimuli/EmptyFrame.bmp,stimuli/RedFrame.bmp,1,Shape,None,3,1,1.0,239.9540557861328,239.9540557861328,0.0,243.94418334960938,243.94418334960938,0.0,242.95118713378906,242.95118713378906,0.0,1.0,1.0,0.0,'1',0.8376039266586304,0.8376039266586304,0.0,56.0
Shape,stimuli/horizontal.bmp,stimuli/horizontal.bmp,stimuli/circle.bmp,stimuli/EmptyFrame.bmp,stimuli/RedFrame.bmp,1,Shape,None,3,1,1.0,243.96775817871094,243.96775817871094,0.0,247.9589385986328,247.9589385986328,0.0,246.97645568847656,246.97645568847656,0.0,1.0,1.0,0.0,'1',0.6532269716262817,0.6532269716262817,0.0,57.0
Shape,stimuli/circle.bmp,stimuli/vertical.bmp,stimuli/circle.bmp,stimuli/EmptyFrame.bmp,stimuli/RedFrame.bmp,2,Shape,None,3,1,1.0,247.98199462890625,247.98199462890625,0.0,251.97622680664062,251.97622680664062,0.0,250.99169921875,250.99169921875,0.0,1.0,1.0,0.0,'2',0.8253026008605957,0.8253026008605957,0.0,58.0
Shape,stimuli/vertical.bmp,stimuli/vertical.bmp,stimuli/circle.bmp,stimuli/EmptyFrame.bmp,stimuli/RedFrame.bmp,1,Shape,None,3,1,1.0,251.99827575683594,251.99827575683594,0.0,255.98846435546875,255.98846435546875,0.0,255.0024871826172,255.0024871826172,0.0,1.0,1.0,0.0,'1',0.525707483291626,0.525707483291626,0.0,59.0
Shape,stimuli/horizontal.bmp,stimuli/horizontal.bmp,stimuli/circle.bmp,stimuli/EmptyFrame.bmp,stimuli/RedFrame.bmp,1,Shape,None,3,1,1.0,256.0082092285156,256.0082092285156,0.0,260.0035400390625,260.0035400390625,0.0,259.0137023925781,259.0137023925781,0.0,1.0,1.0,0.0,'1',0.5829343199729919,0.5829343199729919,0.0,60.0
Shape,stimuli/vertical.bmp,stimuli/vertical.bmp,stimuli/circle.bmp,stimuli/EmptyFrame.bmp,stimuli/RedFrame.bmp,1,Shape,None,3,1,1.0,260.0252685546875,260.0252685546875,0.0,264.0286865234375,264.0286865234375,0.0,263.0263977050781,263.0263977050781,0.0,1.0,1.0,0.0,'1',0.651724100112915,0.651724100112915,0.0,61.0
Shape,stimuli/horizontal.bmp,stimuli/circle.bmp,stimuli/horizontal.bmp,stimuli/EmptyFrame.bmp,stimuli/RedFrame.bmp,2,Shape,None,3,1,1.0,264.0506896972656,264.0506896972656,0.0,268.04248046875,268.04248046875,0.0,267.0633544921875,267.0633544921875,0.0,1.0,1.0,0.0,'2',0.7333949208259583,0.7333949208259583,0.0,62.0
Shape,stimuli/circle.bmp,stimuli/circle.bmp,stimuli/horizontal.bmp,stimuli/EmptyFrame.bmp,stimuli/RedFrame.bmp,1,Shape,None,3,1,1.0,268.06622314453125,268.06622314453125,0.0,272.0552673339844,272.0552673339844,0.0,271.071533203125,271.071533203125,0.0,1.0,1.0,0.0,'1',0.6846033930778503,0.6846033930778503,0.0,63.0
Shape,stimuli/circle.bmp,stimuli/horizontal.bmp,stimuli/circle.bmp,stimuli/EmptyFrame.bmp,stimuli/RedFrame.bmp,2,Shape,None,3,1,1.0,272.08123779296875,272.08123779296875,0.0,276.06646728515625,276.06646728515625,0.0,275.0901794433594,275.0901794433594,0.0,1.0,1.0,0.0,'2',0.9556618928909302,0.9556618928909302,0.0,64.0
Shape,stimuli/vertical.bmp,stimuli/vertical.bmp,stimuli/horizontal.bmp,stimuli/EmptyFrame.bmp,stimuli/RedFrame.bmp,1,Shape,None,3,1,1.0,276.0923767089844,276.0923767089844,0.0,280.0909118652344,280.0909118652344,0.0,279.1199951171875,279.1199951171875,0.0,1.0,1.0,0.0,'1',0.6277481913566589,0.6277481913566589,0.0,65.0
MatchFaces,stimuli/MatchFaces.bmp,stimuli/EmptyFace.bmp,stimuli/EmptyFace.bmp,stimuli/EmptyFrame.bmp,stimuli/EmptyFrame.bmp,Null,None,None,3,1,1.0,280.5198669433594,280.5198669433594,0.0,284.1014709472656,284.1014709472656,0.0,283.0997619628906,283.0997619628906,0.0,0.0,0.0,0.0,,,,,66.0
Neutral,stimuli/20M_NE_C.BMP,stimuli/21M_NE_C.BMP,stimuli/20M_NE_C.BMP,stimuli/EmptyFrame.bmp,stimuli/RedFrame.bmp,2,Neutral,Male,3,1,1.0,284.1726379394531,284.1726379394531,0.0,288.1176452636719,288.1176452636719,0.0,287.1262512207031,287.1262512207031,0.0,1.0,1.0,0.0,'2',1.069192886352539,1.069192886352539,0.0,67.0
Neutral,stimuli/01F_NE_C.bmp,stimuli/01F_NE_C.bmp,stimuli/02F_NE_C.bmp,stimuli/EmptyFrame.bmp,stimuli/RedFrame.bmp,1,Neutral,Female,3,1,1.0,288.1479797363281,288.1479797363281,0.0,292.13323974609375,292.13323974609375,0.0,291.1470031738281,291.1470031738281,0.0,1.0,1.0,0.0,'1',0.7322158813476562,0.7322158813476562,0.0,68.0
Neutral,stimuli/22M_NE_C.BMP,stimuli/23M_NE_C.BMP,stimuli/22M_NE_C.BMP,stimuli/EmptyFrame.bmp,stimuli/RedFrame.bmp,2,Neutral,Male,3,1,1.0,292.16754150390625,292.16754150390625,0.0,296.146728515625,296.146728515625,0.0,295.1607666015625,295.1607666015625,0.0,1.0,1.0,0.0,'2',1.0912399291992188,1.0912399291992188,0.0,69.0
Neutral,stimuli/24M_NE_C.BMP,stimuli/24M_NE_C.BMP,stimuli/25M_NE_C.BMP,stimuli/EmptyFrame.bmp,stimuli/RedFrame.bmp,1,Neutral,Male,3,1,1.0,296.1700439453125,296.1700439453125,0.0,300.16607666015625,300.16607666015625,0.0,299.18121337890625,299.18121337890625,0.0,1.0,1.0,0.0,'1',0.9561762809753418,0.9561762809753418,0.0,70.0
Neutral,stimuli/03F_NE_C.bmp,stimuli/05F_NE_C.bmp,stimuli/03F_NE_C.bmp,stimuli/EmptyFrame.bmp,stimuli/RedFrame.bmp,2,Neutral,Female,3,1,1.0,300.1950988769531,300.1950988769531,0.0,304.17706298828125,304.17706298828125,0.0,303.1877136230469,303.1877136230469,0.0,1.0,1.0,0.0,'2',1.0274032354354858,1.0274032354354858,0.0,71.0
Neutral,stimuli/26M_NE_C.BMP,stimuli/26M_NE_C.BMP,stimuli/27M_NE_C.BMP,stimuli/EmptyFrame.bmp,stimuli/RedFrame.bmp,1,Neutral,Male,3,1,1.0,304.203857421875,304.203857421875,0.0,308.1902160644531,308.1902160644531,0.0,307.1994323730469,307.1994323730469,0.0,1.0,1.0,0.0,'1',0.8648126125335693,0.8648126125335693,0.0,72.0
Neutral,stimuli/06F_NE_C.bmp,stimuli/07F_NE_C.BMP,stimuli/06F_NE_C.bmp,stimuli/EmptyFrame.bmp,stimuli/RedFrame.bmp,2,Neutral,Female,3,1,1.0,308.2176818847656,308.2176818847656,0.0,312.2024230957031,312.2024230957031,0.0,311.2288513183594,311.2288513183594,0.0,1.0,1.0,0.0,'2',0.906406581401825,0.906406581401825,0.0,73.0
Neutral,stimuli/08F_NE_C.BMP,stimuli/08F_NE_C.BMP,stimuli/09F_NE_C.BMP,stimuli/EmptyFrame.bmp,stimuli/RedFrame.bmp,1,Neutral,Female,3,1,1.0,312.2283630371094,312.2283630371094,0.0,316.2161865234375,316.2161865234375,0.0,315.2283020019531,315.2283020019531,0.0,1.0,1.0,0.0,'1',0.7810496091842651,0.7810496091842651,0.0,74.0
Neutral,stimuli/28M_NE_C.BMP,stimuli/29M_NE_C.BMP,stimuli/28M_NE_C.BMP,stimuli/EmptyFrame.bmp,stimuli/RedFrame.bmp,2,Neutral,Male,3,1,1.0,316.23968505859375,316.23968505859375,0.0,320.2326965332031,320.2326965332031,0.0,319.2404479980469,319.2404479980469,0.0,1.0,1.0,0.0,'2',0.7865402102470398,0.7865402102470398,0.0,75.0
Neutral,stimuli/10F_NE_C.BMP,stimuli/10F_NE_C.BMP,stimuli/06F_NE_C.bmp,stimuli/EmptyFrame.bmp,stimuli/RedFrame.bmp,1,Neutral,Female,3,1,1.0,320.2562561035156,320.2562561035156,0.0,324.2489929199219,324.2489929199219,0.0,323.2669982910156,323.2669982910156,0.0,1.0,1.0,0.0,'1',0.7034903168678284,0.7034903168678284,0.0,76.0
MatchFaces,stimuli/MatchFaces.bmp,stimuli/EmptyFace.bmp,stimuli/EmptyFace.bmp,stimuli/EmptyFrame.bmp,stimuli/EmptyFrame.bmp,Null,None,None,3,1,1.0,324.447265625,324.447265625,0.0,328.2581481933594,328.2581481933594,0.0,327.2614440917969,327.2614440917969,0.0,0.0,0.0,0.0,,,,,77.0
Happy,stimuli/28M_HA_O.BMP,stimuli/29M_HA_O.BMP,stimuli/28M_HA_O.BMP,stimuli/EmptyFrame.bmp,stimuli/RedFrame.bmp,2,Happy,Male,3,1,1.0,328.3680725097656,328.3680725097656,0.0,332.27435302734375,332.27435302734375,0.0,331.28350830078125,331.28350830078125,0.0,1.0,1.0,0.0,'2',1.0396517515182495,1.0396517515182495,0.0,78.0
Happy,stimuli/10F_HA_O.BMP,stimuli/10F_HA_O.BMP,stimuli/06F_HA_O.bmp,stimuli/EmptyFrame.bmp,stimuli/RedFrame.bmp,1,Happy,Female,3,1,1.0,332.3370056152344,332.3370056152344,0.0,336.28753662109375,336.28753662109375,0.0,335.304931640625,335.304931640625,0.0,1.0,1.0,0.0,'1',0.7532516717910767,0.7532516717910767,0.0,79.0
Happy,stimuli/26M_HA_O.BMP,stimuli/26M_HA_O.BMP,stimuli/27M_HA_O.BMP,stimuli/EmptyFrame.bmp,stimuli/RedFrame.bmp,1,Happy,Male,3,1,1.0,336.31817626953125,336.31817626953125,0.0,340.3094177246094,340.3094177246094,0.0,339.34423828125,339.34423828125,0.0,1.0,1.0,0.0,'1',0.8203771710395813,0.8203771710395813,0.0,80.0
Happy,stimuli/20M_HA_O.BMP,stimuli/21M_HA_O.BMP,stimuli/20M_HA_O.BMP,stimuli/EmptyFrame.bmp,stimuli/RedFrame.bmp,2,Happy,Male,3,1,1.0,340.3394775390625,340.3394775390625,0.0,344.32708740234375,344.32708740234375,0.0,343.3482360839844,343.3482360839844,0.0,1.0,1.0,0.0,'2',0.7948958277702332,0.7948958277702332,0.0,81.0
Happy,stimuli/37M_HA_O.BMP,stimuli/37M_HA_O.BMP,stimuli/36M_HA_O.BMP,stimuli/EmptyFrame.bmp,stimuli/RedFrame.bmp,1,Happy,Male,3,1,1.0,344.3587646484375,344.3587646484375,0.0,348.33892822265625,348.33892822265625,0.0,347.3518981933594,347.3518981933594,0.0,1.0,1.0,0.0,'1',0.8832626938819885,0.8832626938819885,0.0,82.0
Happy,stimuli/43M_HA_O.BMP,stimuli/42M_HA_O.BMP,stimuli/43M_HA_O.BMP,stimuli/EmptyFrame.bmp,stimuli/RedFrame.bmp,2,Happy,Male,3,1,1.0,348.3667907714844,348.3667907714844,0.0,352.3506774902344,352.3506774902344,0.0,351.3668212890625,351.3668212890625,0.0,1.0,1.0,0.0,'2',0.6001378893852234,0.6001378893852234,0.0,83.0
Happy,stimuli/11F_HA_O.BMP,stimuli/10F_HA_O.BMP,stimuli/11F_HA_O.BMP,stimuli/EmptyFrame.bmp,stimuli/RedFrame.bmp,2,Happy,Female,3,1,1.0,352.3738708496094,352.3738708496094,0.0,356.3721008300781,356.3721008300781,0.0,355.37603759765625,355.37603759765625,0.0,1.0,1.0,0.0,'2',0.7641602754592896,0.7641602754592896,0.0,84.0
Happy,stimuli/17F_HA_O.BMP,stimuli/16F_HA_O.BMP,stimuli/17F_HA_O.BMP,stimuli/EmptyFrame.bmp,stimuli/RedFrame.bmp,2,Happy,Female,3,1,1.0,356.4501037597656,356.4501037597656,0.0,360.38348388671875,360.38348388671875,0.0,359.4136962890625,359.4136962890625,0.0,1.0,1.0,0.0,'2',1.2071446180343628,1.2071446180343628,0.0,85.0
Happy,stimuli/15F_HA_O.BMP,stimuli/15F_HA_O.BMP,stimuli/14F_HA_O.BMP,stimuli/EmptyFrame.bmp,stimuli/RedFrame.bmp,1,Happy,Female,3,1,1.0,360.44232177734375,360.44232177734375,0.0,364.4109802246094,364.4109802246094,0.0,363.40814208984375,363.40814208984375,0.0,1.0,1.0,0.0,'1',0.8161678910255432,0.8161678910255432,0.0,86.0
Happy,stimuli/08F_HA_O.BMP,stimuli/08F_HA_O.BMP,stimuli/09F_HA_O.BMP,stimuli/EmptyFrame.bmp,stimuli/RedFrame.bmp,1,Happy,Female,3,1,1.0,364.44586181640625,364.44586181640625,0.0,368.4252014160156,368.4252014160156,0.0,367.4393310546875,367.4393310546875,0.0,1.0,1.0,0.0,'1',1.232959270477295,1.232959270477295,0.0,87.0
MatchFaces,stimuli/MatchFaces.bmp,stimuli/EmptyFace.bmp,stimuli/EmptyFace.bmp,stimuli/EmptyFrame.bmp,stimuli/EmptyFrame.bmp,Null,None,None,3,1,1.0,368.7050476074219,368.7050476074219,0.0,372.4267883300781,372.4267883300781,0.0,371.4434814453125,371.4434814453125,0.0,0.0,0.0,0.0,,,,,88.0
Fear,stimuli/34M_FE_O.BMP,stimuli/34M_FE_O.BMP,stimuli/33M_FE_O.BMP,stimuli/EmptyFrame.bmp,stimuli/RedFrame.bmp,1,Fear,Male,3,1,1.0,372.52789306640625,372.52789306640625,0.0,376.4363098144531,376.4363098144531,0.0,375.4625549316406,375.4625549316406,0.0,1.0,1.0,0.0,'1',0.8957459926605225,0.8957459926605225,0.0,89.0
Fear,stimuli/28M_FE_O.BMP,stimuli/28M_FE_O.BMP,stimuli/25M_FE_O.BMP,stimuli/EmptyFrame.bmp,stimuli/RedFrame.bmp,1,Fear,Male,3,1,1.0,376.4595642089844,376.4595642089844,0.0,380.4493713378906,380.4493713378906,0.0,379.45947265625,379.45947265625,0.0,1.0,1.0,0.0,'1',0.9302629828453064,0.9302629828453064,0.0,90.0
Fear,stimuli/11F_FE_O.BMP,stimuli/10F_FE_O.BMP,stimuli/11F_FE_O.BMP,stimuli/EmptyFrame.bmp,stimuli/RedFrame.bmp,2,Fear,Female,3,1,1.0,380.4744873046875,380.4744873046875,0.0,384.4613037109375,384.4613037109375,0.0,383.4914245605469,383.4914245605469,0.0,1.0,1.0,0.0,'2',0.8663018941879272,0.8663018941879272,0.0,91.0
Fear,stimuli/27M_FE_O.BMP,stimuli/26M_FE_O.BMP,stimuli/27M_FE_O.BMP,stimuli/EmptyFrame.bmp,stimuli/RedFrame.bmp,2,Fear,Male,3,1,1.0,384.487060546875,384.487060546875,0.0,388.4779968261719,388.4779968261719,0.0,387.49139404296875,387.49139404296875,0.0,1.0,1.0,0.0,'2',0.9313955903053284,0.9313955903053284,0.0,92.0
Fear,stimuli/11F_FE_O.BMP,stimuli/12F_FE_O.BMP,stimuli/11F_FE_O.BMP,stimuli/EmptyFrame.bmp,stimuli/RedFrame.bmp,2,Fear,Female,3,1,1.0,388.5060119628906,388.5060119628906,0.0,392.4920654296875,392.4920654296875,0.0,391.5076904296875,391.5076904296875,0.0,1.0,1.0,0.0,'2',0.9546778798103333,0.9546778798103333,0.0,93.0
Fear,stimuli/31M_FE_O.BMP,stimuli/31M_FE_O.BMP,stimuli/38M_FE_O.BMP,stimuli/EmptyFrame.bmp,stimuli/RedFrame.bmp,1,Fear,Male,3,1,1.0,392.5558166503906,392.5558166503906,0.0,396.5106506347656,396.5106506347656,0.0,395.51922607421875,395.51922607421875,0.0,1.0,1.0,0.0,'1',0.7349848747253418,0.7349848747253418,0.0,94.0
Fear,stimuli/29M_FE_O.BMP,stimuli/29M_FE_O.BMP,stimuli/24M_FE_O.BMP,stimuli/EmptyFrame.bmp,stimuli/RedFrame.bmp,1,Fear,Male,3,1,1.0,396.5317077636719,396.5317077636719,0.0,400.5267028808594,400.5267028808594,0.0,399.5387268066406,399.5387268066406,0.0,1.0,1.0,0.0,'1',0.7810801267623901,0.7810801267623901,0.0,95.0
Fear,stimuli/25M_FE_O.BMP,stimuli/29M_FE_O.BMP,stimuli/25M_FE_O.BMP,stimuli/EmptyFrame.bmp,stimuli/RedFrame.bmp,2,Fear,Male,3,1,1.0,400.5517883300781,400.5517883300781,0.0,404.53778076171875,404.53778076171875,0.0,403.56304931640625,403.56304931640625,0.0,1.0,1.0,0.0,'2',0.8494470715522766,0.8494470715522766,0.0,96.0
Fear,stimuli/15F_FE_O.BMP,stimuli/18F_FE_O.BMP,stimuli/15F_FE_O.BMP,stimuli/EmptyFrame.bmp,stimuli/RedFrame.bmp,2,Fear,Female,3,1,1.0,404.5745544433594,404.5745544433594,0.0,408.5536193847656,408.5536193847656,0.0,407.5672912597656,407.5672912597656,0.0,1.0,1.0,0.0,'2',0.9103510975837708,0.9103510975837708,0.0,97.0
Fear,stimuli/09F_FE_O.BMP,stimuli/09F_FE_O.BMP,stimuli/12F_FE_O.BMP,stimuli/EmptyFrame.bmp,stimuli/RedFrame.bmp,1,Fear,Female,3,1,1.0,408.57757568359375,408.57757568359375,0.0,412.57586669921875,412.57586669921875,0.0,411.582763671875,411.582763671875,0.0,1.0,1.0,0.0,'1',0.763812780380249,0.763812780380249,0.0,98.0
MatchFaces,stimuli/MatchFaces.bmp,stimuli/EmptyFace.bmp,stimuli/EmptyFace.bmp,stimuli/EmptyFrame.bmp,stimuli/EmptyFrame.bmp,Null,None,None,3,1,1.0,412.792236328125,412.792236328125,0.0,416.5797424316406,416.5797424316406,0.0,415.59100341796875,415.59100341796875,0.0,0.0,0.0,0.0,,,,,99.0
Anger,stimuli/23M_AN_O.BMP,stimuli/23M_AN_O.BMP,stimuli/31M_AN_O.BMP,stimuli/EmptyFrame.bmp,stimuli/RedFrame.bmp,1,Anger,Male,3,1,1.0,416.6495361328125,416.6495361328125,0.0,420.59185791015625,420.59185791015625,0.0,419.6097717285156,419.6097717285156,0.0,1.0,1.0,0.0,'1',0.8020563125610352,0.8020563125610352,0.0,100.0
Anger,stimuli/36M_AN_O.BMP,stimuli/37M_AN_O.BMP,stimuli/36M_AN_O.BMP,stimuli/EmptyFrame.bmp,stimuli/RedFrame.bmp,2,Anger,Male,3,1,1.0,420.6202697753906,420.6202697753906,0.0,424.6186218261719,424.6186218261719,0.0,423.62115478515625,423.62115478515625,0.0,1.0,1.0,0.0,'2',0.9410712122917175,0.9410712122917175,0.0,101.0
Anger,stimuli/38M_AN_O.BMP,stimuli/39M_AN_O.BMP,stimuli/38M_AN_O.BMP,stimuli/EmptyFrame.bmp,stimuli/RedFrame.bmp,2,Anger,Male,3,1,1.0,424.65277099609375,424.65277099609375,0.0,428.6324462890625,428.6324462890625,0.0,427.6455993652344,427.6455993652344,0.0,1.0,1.0,0.0,'2',0.7240856885910034,0.7240856885910034,0.0,102.0
Anger,stimuli/02f_an_o.bmp,stimuli/18F_AN_O.BMP,stimuli/02f_an_o.bmp,stimuli/EmptyFrame.bmp,stimuli/RedFrame.bmp,2,Anger,Female,3,1,1.0,428.6582946777344,428.6582946777344,0.0,432.6463928222656,432.6463928222656,0.0,431.66656494140625,431.66656494140625,0.0,1.0,1.0,0.0,'2',0.6521344780921936,0.6521344780921936,0.0,103.0
Anger,stimuli/22M_AN_O.BMP,stimuli/32M_AN_O.BMP,stimuli/22M_AN_O.BMP,stimuli/EmptyFrame.bmp,stimuli/RedFrame.bmp,2,Anger,Male,3,1,1.0,432.67626953125,432.67626953125,0.0,436.6647644042969,436.6647644042969,0.0,435.67608642578125,435.67608642578125,0.0,1.0,1.0,0.0,'2',0.7695673108100891,0.7695673108100891,0.0,104.0
Anger,stimuli/12F_AN_O.BMP,stimuli/12F_AN_O.BMP,stimuli/13F_AN_O.BMP,stimuli/EmptyFrame.bmp,stimuli/RedFrame.bmp,1,Anger,Female,3,1,1.0,436.6912841796875,436.6912841796875,0.0,440.6775207519531,440.6775207519531,0.0,439.6991271972656,439.6991271972656,0.0,1.0,1.0,0.0,'1',0.8782474994659424,0.8782474994659424,0.0,105.0
Anger,stimuli/05F_AN_O.bmp,stimuli/05F_AN_O.bmp,stimuli/16F_AN_O.BMP,stimuli/EmptyFrame.bmp,stimuli/RedFrame.bmp,1,Anger,Female,3,1,1.0,440.70428466796875,440.70428466796875,0.0,444.6977233886719,444.6977233886719,0.0,443.7104187011719,443.7104187011719,0.0,1.0,1.0,0.0,'1',0.8187329173088074,0.8187329173088074,0.0,106.0
Anger,stimuli/21M_AN_O.BMP,stimuli/21M_AN_O.BMP,stimuli/33M_AN_O.BMP,stimuli/EmptyFrame.bmp,stimuli/RedFrame.bmp,1,Anger,Male,3,1,1.0,444.7310791015625,444.7310791015625,0.0,448.7154235839844,448.7154235839844,0.0,447.73492431640625,447.73492431640625,0.0,1.0,1.0,0.0,'1',0.7423108220100403,0.7423108220100403,0.0,107.0
Anger,stimuli/07F_AN_O.BMP,stimuli/07F_AN_O.BMP,stimuli/14F_AN_O.BMP,stimuli/EmptyFrame.bmp,stimuli/RedFrame.bmp,1,Anger,Female,3,1,1.0,448.74163818359375,448.74163818359375,0.0,452.7344665527344,452.7344665527344,0.0,451.7376708984375,451.7376708984375,0.0,1.0,1.0,0.0,'1',0.7206348776817322,0.7206348776817322,0.0,108.0
Anger,stimuli/10F_AN_O.BMP,stimuli/10F_AN_O.BMP,stimuli/11F_AN_O.BMP,stimuli/EmptyFrame.bmp,stimuli/RedFrame.bmp,1,Anger,Female,3,1,1.0,452.7649841308594,452.7649841308594,0.0,456.7452392578125,456.7452392578125,0.0,455.7596130371094,455.7596130371094,0.0,1.0,1.0,0.0,'1',0.7083014845848083,0.7083014845848083,0.0,109.0

extraInfo
participant,sub004
session,001
date,2025_May_15_0857
expName,HaririTask_Ver2
psychopyVersion,3.0.1
frameRate,None
