TrialType,Top,Left,Right,EmptyFrame,SelectedFrame,Correct,Emotion,Gender,TrialLength,FixationLength,n,GCFaceStartTime_mean,GCFaceStartTime_raw,GCFaceStartTime_std,GCPostFaceFixationEndTime_mean,GCPostFaceFixationEndTime_raw,GCPostFaceFixationEndTime_std,GCPostFaceFixationStartTime_mean,GCPostFaceFixationStartTime_raw,GCPostFaceFixationStartTime_std,key_resp_trial.corr_mean,key_resp_trial.corr_raw,key_resp_trial.corr_std,key_resp_trial.keys_raw,key_resp_trial.rt_mean,key_resp_trial.rt_raw,key_resp_trial.rt_std,order
MatchFaces,stimuli/MatchFaces.bmp,stimuli/EmptyFace.bmp,stimuli/EmptyFace.bmp,stimuli/EmptyFrame.bmp,stimuli/EmptyFrame.bmp,Null,None,None,3,1,1.0,15.253576278686523,15.253576278686523,0.0,19.05776596069336,19.05776596069336,0.0,18.058385848999023,18.058385848999023,0.0,0.0,0.0,0.0,,,,,0.0
Fear,stimuli/23M_FE_O.BMP,stimuli/23M_FE_O.BMP,stimuli/24M_FE_O.BMP,stimuli/EmptyFrame.bmp,stimuli/RedFrame.bmp,1,Fear,Male,3,1,1.0,19.227008819580078,19.227008819580078,0.0,23.075572967529297,23.075572967529297,0.0,22.082286834716797,22.082286834716797,0.0,1.0,1.0,0.0,'1',1.667829155921936,1.667829155921936,0.0,1.0
Fear,stimuli/19F_FE_O.BMP,stimuli/18F_FE_O.BMP,stimuli/19F_FE_O.BMP,stimuli/EmptyFrame.bmp,stimuli/RedFrame.bmp,2,Fear,Female,3,1,1.0,23.10297393798828,23.10297393798828,0.0,27.095277786254883,27.095277786254883,0.0,26.108835220336914,26.108835220336914,0.0,1.0,1.0,0.0,'2',1.244057059288025,1.244057059288025,0.0,2.0
Fear,stimuli/17F_FE_O.BMP,stimuli/17F_FE_O.BMP,stimuli/16F_FE_O.BMP,stimuli/EmptyFrame.bmp,stimuli/RedFrame.bmp,1,Fear,Female,3,1,1.0,27.15462875366211,27.15462875366211,0.0,31.10577392578125,31.10577392578125,0.0,30.12354278564453,30.12354278564453,0.0,1.0,1.0,0.0,'1',1.16965913772583,1.16965913772583,0.0,3.0
Fear,stimuli/21M_FE_O.BMP,stimuli/21M_FE_O.BMP,stimuli/22M_FE_O.BMP,stimuli/EmptyFrame.bmp,stimuli/RedFrame.bmp,1,Fear,Male,3,1,1.0,31.134456634521484,31.134456634521484,0.0,35.11783981323242,35.11783981323242,0.0,34.134361267089844,34.134361267089844,0.0,1.0,1.0,0.0,'1',1.121163249015808,1.121163249015808,0.0,4.0
Fear,stimuli/09F_FE_O.BMP,stimuli/07F_FE_O.BMP,stimuli/09F_FE_O.BMP,stimuli/EmptyFrame.bmp,stimuli/RedFrame.bmp,2,Fear,Female,3,1,1.0,35.145545959472656,35.145545959472656,0.0,39.134239196777344,39.134239196777344,0.0,38.14037322998047,38.14037322998047,0.0,1.0,1.0,0.0,'2',0.7960259914398193,0.7960259914398193,0.0,5.0
Fear,stimuli/08F_FE_O.BMP,stimuli/13F_FE_O.BMP,stimuli/08F_FE_O.BMP,stimuli/EmptyFrame.bmp,stimuli/RedFrame.bmp,2,Fear,Female,3,1,1.0,39.19551086425781,39.19551086425781,0.0,43.145931243896484,43.145931243896484,0.0,42.15997314453125,42.15997314453125,0.0,1.0,1.0,0.0,'2',0.8486025929450989,0.8486025929450989,0.0,6.0
Fear,stimuli/07F_FE_O.BMP,stimuli/07F_FE_O.BMP,stimuli/14F_FE_O.BMP,stimuli/EmptyFrame.bmp,stimuli/RedFrame.bmp,1,Fear,Female,3,1,1.0,43.17392349243164,43.17392349243164,0.0,47.156856536865234,47.156856536865234,0.0,46.176090240478516,46.176090240478516,0.0,1.0,1.0,0.0,'1',1.2628990411758423,1.2628990411758423,0.0,7.0
Fear,stimuli/26M_FE_O.BMP,stimuli/26M_FE_O.BMP,stimuli/28M_FE_O.BMP,stimuli/EmptyFrame.bmp,stimuli/RedFrame.bmp,1,Fear,Male,3,1,1.0,47.183494567871094,47.183494567871094,0.0,51.169837951660156,51.169837951660156,0.0,50.1926155090332,50.1926155090332,0.0,1.0,1.0,0.0,'1',0.937743604183197,0.937743604183197,0.0,8.0
Fear,stimuli/10F_FE_O.BMP,stimuli/11F_FE_O.BMP,stimuli/10F_FE_O.BMP,stimuli/EmptyFrame.bmp,stimuli/RedFrame.bmp,2,Fear,Female,3,1,1.0,51.19876480102539,51.19876480102539,0.0,55.181148529052734,55.181148529052734,0.0,54.19758224487305,54.19758224487305,0.0,1.0,1.0,0.0,'2',0.8202064037322998,0.8202064037322998,0.0,9.0
Fear,stimuli/29M_FE_O.BMP,stimuli/30M_FE_O.BMP,stimuli/29M_FE_O.BMP,stimuli/EmptyFrame.bmp,stimuli/RedFrame.bmp,2,Fear,Male,3,1,1.0,55.2076530456543,55.2076530456543,0.0,59.19449996948242,59.19449996948242,0.0,58.20860290527344,58.20860290527344,0.0,1.0,1.0,0.0,'2',0.8150622844696045,0.8150622844696045,0.0,10.0
MatchFaces,stimuli/MatchFaces.bmp,stimuli/EmptyFace.bmp,stimuli/EmptyFace.bmp,stimuli/EmptyFrame.bmp,stimuli/EmptyFrame.bmp,Null,None,None,3,1,1.0,59.338111877441406,59.338111877441406,0.0,63.19890213012695,63.19890213012695,0.0,62.21108627319336,62.21108627319336,0.0,0.0,0.0,0.0,,,,,11.0
Neutral,stimuli/07F_NE_C.BMP,stimuli/07F_NE_C.BMP,stimuli/14F_NE_C.BMP,stimuli/EmptyFrame.bmp,stimuli/RedFrame.bmp,1,Neutral,Female,3,1,1.0,63.24727249145508,63.24727249145508,0.0,67.2174301147461,67.2174301147461,0.0,66.23483276367188,66.23483276367188,0.0,1.0,1.0,0.0,'1',1.1284210681915283,1.1284210681915283,0.0,12.0
Neutral,stimuli/25M_NE_C.BMP,stimuli/29M_NE_C.BMP,stimuli/25M_NE_C.BMP,stimuli/EmptyFrame.bmp,stimuli/RedFrame.bmp,2,Neutral,Male,3,1,1.0,67.24669647216797,67.24669647216797,0.0,71.23506164550781,71.23506164550781,0.0,70.24175262451172,70.24175262451172,0.0,1.0,1.0,0.0,'2',0.7091794013977051,0.7091794013977051,0.0,13.0
Neutral,stimuli/26M_NE_C.BMP,stimuli/26M_NE_C.BMP,stimuli/28M_NE_C.BMP,stimuli/EmptyFrame.bmp,stimuli/RedFrame.bmp,1,Neutral,Male,3,1,1.0,71.29688262939453,71.29688262939453,0.0,75.24564361572266,75.24564361572266,0.0,74.25888061523438,74.25888061523438,0.0,1.0,1.0,0.0,'1',0.8784409761428833,0.8784409761428833,0.0,14.0
Neutral,stimuli/08F_NE_C.BMP,stimuli/13F_NE_C.BMP,stimuli/08F_NE_C.BMP,stimuli/EmptyFrame.bmp,stimuli/RedFrame.bmp,2,Neutral,Female,3,1,1.0,75.27387237548828,75.27387237548828,0.0,79.26647186279297,79.26647186279297,0.0,78.26988983154297,78.26988983154297,0.0,1.0,1.0,0.0,'2',0.8334740996360779,0.8334740996360779,0.0,15.0
Neutral,stimuli/09F_NE_C.BMP,stimuli/09F_NE_C.BMP,stimuli/12F_NE_C.BMP,stimuli/EmptyFrame.bmp,stimuli/RedFrame.bmp,1,Neutral,Female,3,1,1.0,79.29326629638672,79.29326629638672,0.0,83.27706909179688,83.27706909179688,0.0,82.29693603515625,82.29693603515625,0.0,1.0,1.0,0.0,'1',0.8807367086410522,0.8807367086410522,0.0,16.0
Neutral,stimuli/27M_NE_C.BMP,stimuli/26M_NE_C.BMP,stimuli/27M_NE_C.BMP,stimuli/EmptyFrame.bmp,stimuli/RedFrame.bmp,2,Neutral,Male,3,1,1.0,83.30209350585938,83.30209350585938,0.0,87.29529571533203,87.29529571533203,0.0,86.30101013183594,86.30101013183594,0.0,1.0,1.0,0.0,'2',0.8106870055198669,0.8106870055198669,0.0,17.0
Neutral,stimuli/28M_NE_C.BMP,stimuli/28M_NE_C.BMP,stimuli/25M_NE_C.BMP,stimuli/EmptyFrame.bmp,stimuli/RedFrame.bmp,1,Neutral,Male,3,1,1.0,87.32247161865234,87.32247161865234,0.0,91.30603790283203,91.30603790283203,0.0,90.33201599121094,90.33201599121094,0.0,1.0,1.0,0.0,'1',1.1564401388168335,1.1564401388168335,0.0,18.0
Neutral,stimuli/10F_NE_C.BMP,stimuli/11F_NE_C.BMP,stimuli/10F_NE_C.BMP,stimuli/EmptyFrame.bmp,stimuli/RedFrame.bmp,2,Neutral,Female,3,1,1.0,91.33531188964844,91.33531188964844,0.0,95.31939697265625,95.31939697265625,0.0,94.34172821044922,94.34172821044922,0.0,1.0,1.0,0.0,'2',0.8055309057235718,0.8055309057235718,0.0,19.0
Neutral,stimuli/29M_NE_C.BMP,stimuli/29M_NE_C.BMP,stimuli/24M_NE_C.BMP,stimuli/EmptyFrame.bmp,stimuli/RedFrame.bmp,1,Neutral,Male,3,1,1.0,95.34891510009766,95.34891510009766,0.0,99.32979583740234,99.32979583740234,0.0,98.34587860107422,98.34587860107422,0.0,1.0,1.0,0.0,'1',1.3870123624801636,1.3870123624801636,0.0,20.0
Neutral,stimuli/11F_NE_C.BMP,stimuli/10F_NE_C.BMP,stimuli/11F_NE_C.BMP,stimuli/EmptyFrame.bmp,stimuli/RedFrame.bmp,2,Neutral,Female,3,1,1.0,99.3514633178711,99.3514633178711,0.0,103.34675598144531,103.34675598144531,0.0,102.35624694824219,102.35624694824219,0.0,1.0,1.0,0.0,'2',0.801104724407196,0.801104724407196,0.0,21.0
MatchShape,stimuli/MatchShapes.bmp,stimuli/EmptyFace.bmp,stimuli/EmptyFace.bmp,stimuli/EmptyFrame.bmp,stimuli/EmptyFrame.bmp,Null,None,None,3,1,1.0,103.37213897705078,103.37213897705078,0.0,107.35302734375,107.35302734375,0.0,106.36046600341797,106.36046600341797,0.0,0.0,0.0,0.0,,,,,22.0
Shape,stimuli/circle.bmp,stimuli/vertical.bmp,stimuli/circle.bmp,stimuli/EmptyFrame.bmp,stimuli/RedFrame.bmp,2,Shape,None,3,1,1.0,107.38663482666016,107.38663482666016,0.0,111.3751449584961,111.3751449584961,0.0,110.38235473632812,110.38235473632812,0.0,1.0,1.0,0.0,'2',1.1174803972244263,1.1174803972244263,0.0,23.0
Shape,stimuli/horizontal.bmp,stimuli/circle.bmp,stimuli/horizontal.bmp,stimuli/EmptyFrame.bmp,stimuli/RedFrame.bmp,2,Shape,None,3,1,1.0,111.40457153320312,111.40457153320312,0.0,115.39497375488281,115.39497375488281,0.0,114.41421508789062,114.41421508789062,0.0,1.0,1.0,0.0,'2',0.7304198145866394,0.7304198145866394,0.0,24.0
Shape,stimuli/circle.bmp,stimuli/vertical.bmp,stimuli/circle.bmp,stimuli/EmptyFrame.bmp,stimuli/RedFrame.bmp,2,Shape,None,3,1,1.0,115.41885375976562,115.41885375976562,0.0,119.41282653808594,119.41282653808594,0.0,118.4145278930664,118.4145278930664,0.0,1.0,1.0,0.0,'2',0.7762553095817566,0.7762553095817566,0.0,25.0
Shape,stimuli/vertical.bmp,stimuli/circle.bmp,stimuli/vertical.bmp,stimuli/EmptyFrame.bmp,stimuli/RedFrame.bmp,2,Shape,None,3,1,1.0,119.4346923828125,119.4346923828125,0.0,123.42387390136719,123.42387390136719,0.0,122.4371337890625,122.4371337890625,0.0,1.0,1.0,0.0,'2',1.269310712814331,1.269310712814331,0.0,26.0
Shape,stimuli/vertical.bmp,stimuli/horizontal.bmp,stimuli/vertical.bmp,stimuli/EmptyFrame.bmp,stimuli/RedFrame.bmp,2,Shape,None,3,1,1.0,123.4488525390625,123.4488525390625,0.0,127.43891906738281,127.43891906738281,0.0,126.44377899169922,126.44377899169922,0.0,1.0,1.0,0.0,'2',1.1576530933380127,1.1576530933380127,0.0,27.0
Shape,stimuli/horizontal.bmp,stimuli/horizontal.bmp,stimuli/vertical.bmp,stimuli/EmptyFrame.bmp,stimuli/RedFrame.bmp,1,Shape,None,3,1,1.0,127.46218872070312,127.46218872070312,0.0,131.45372009277344,131.45372009277344,0.0,130.47039794921875,130.47039794921875,0.0,1.0,1.0,0.0,'1',1.0766934156417847,1.0766934156417847,0.0,28.0
Shape,stimuli/horizontal.bmp,stimuli/circle.bmp,stimuli/horizontal.bmp,stimuli/EmptyFrame.bmp,stimuli/RedFrame.bmp,2,Shape,None,3,1,1.0,131.47918701171875,131.47918701171875,0.0,135.46728515625,135.46728515625,0.0,134.4805908203125,134.4805908203125,0.0,1.0,1.0,0.0,'2',0.8898831009864807,0.8898831009864807,0.0,29.0
Shape,stimuli/circle.bmp,stimuli/circle.bmp,stimuli/vertical.bmp,stimuli/EmptyFrame.bmp,stimuli/RedFrame.bmp,1,Shape,None,3,1,1.0,135.49095153808594,135.49095153808594,0.0,139.48611450195312,139.48611450195312,0.0,138.4901885986328,138.4901885986328,0.0,1.0,1.0,0.0,'1',1.0654162168502808,1.0654162168502808,0.0,30.0
Shape,stimuli/vertical.bmp,stimuli/horizontal.bmp,stimuli/vertical.bmp,stimuli/EmptyFrame.bmp,stimuli/RedFrame.bmp,2,Shape,None,3,1,1.0,139.50474548339844,139.50474548339844,0.0,143.49771118164062,143.49771118164062,0.0,142.5159149169922,142.5159149169922,0.0,1.0,1.0,0.0,'2',1.186048150062561,1.186048150062561,0.0,31.0
Shape,stimuli/vertical.bmp,stimuli/vertical.bmp,stimuli/horizontal.bmp,stimuli/EmptyFrame.bmp,stimuli/RedFrame.bmp,1,Shape,None,3,1,1.0,143.5196075439453,143.5196075439453,0.0,147.5153045654297,147.5153045654297,0.0,146.51803588867188,146.51803588867188,0.0,1.0,1.0,0.0,'1',1.1882750988006592,1.1882750988006592,0.0,32.0
MatchFaces,stimuli/MatchFaces.bmp,stimuli/EmptyFace.bmp,stimuli/EmptyFace.bmp,stimuli/EmptyFrame.bmp,stimuli/EmptyFrame.bmp,Null,None,None,3,1,1.0,147.66046142578125,147.66046142578125,0.0,151.5247802734375,151.5247802734375,0.0,150.53076171875,150.53076171875,0.0,0.0,0.0,0.0,,,,,33.0
Anger,stimuli/20M_AN_O.BMP,stimuli/34M_AN_O.BMP,stimuli/20M_AN_O.BMP,stimuli/EmptyFrame.bmp,stimuli/RedFrame.bmp,2,Anger,Male,3,1,1.0,151.5769805908203,151.5769805908203,0.0,155.5451202392578,155.5451202392578,0.0,154.55368041992188,154.55368041992188,0.0,1.0,1.0,0.0,'2',0.9985799193382263,0.9985799193382263,0.0,34.0
Anger,stimuli/01F_AN_O.bmp,stimuli/19F_AN_O.BMP,stimuli/01F_AN_O.bmp,stimuli/EmptyFrame.bmp,stimuli/RedFrame.bmp,2,Anger,Female,3,1,1.0,155.57269287109375,155.57269287109375,0.0,159.559326171875,159.559326171875,0.0,158.5736846923828,158.5736846923828,0.0,1.0,1.0,0.0,'2',0.7949333190917969,0.7949333190917969,0.0,35.0
Anger,stimuli/06F_AN_O.bmp,stimuli/15F_AN_O.BMP,stimuli/06F_AN_O.bmp,stimuli/EmptyFrame.bmp,stimuli/RedFrame.bmp,2,Anger,Female,3,1,1.0,159.5895233154297,159.5895233154297,0.0,163.57266235351562,163.57266235351562,0.0,162.58180236816406,162.58180236816406,0.0,1.0,1.0,0.0,'2',1.1218843460083008,1.1218843460083008,0.0,36.0
Anger,stimuli/42M_AN_O.BMP,stimuli/42M_AN_O.BMP,stimuli/43M_AN_O.BMP,stimuli/EmptyFrame.bmp,stimuli/RedFrame.bmp,1,Anger,Male,3,1,1.0,163.60426330566406,163.60426330566406,0.0,167.58941650390625,167.58941650390625,0.0,166.60653686523438,166.60653686523438,0.0,1.0,1.0,0.0,'1',1.1199496984481812,1.1199496984481812,0.0,37.0
Anger,stimuli/40M_AN_O.BMP,stimuli/41M_AN_O.BMP,stimuli/40M_AN_O.BMP,stimuli/EmptyFrame.bmp,stimuli/RedFrame.bmp,2,Anger,Male,3,1,1.0,167.6466827392578,167.6466827392578,0.0,171.61033630371094,171.61033630371094,0.0,170.61557006835938,170.61557006835938,0.0,1.0,1.0,0.0,'2',1.1931644678115845,1.1931644678115845,0.0,38.0
Anger,stimuli/08F_AN_O.BMP,stimuli/08F_AN_O.BMP,stimuli/13F_AN_O.BMP,stimuli/EmptyFrame.bmp,stimuli/RedFrame.bmp,1,Anger,Female,3,1,1.0,171.64198303222656,171.64198303222656,0.0,175.6303253173828,175.6303253173828,0.0,174.6333465576172,174.6333465576172,0.0,1.0,1.0,0.0,'1',1.2775388956069946,1.2775388956069946,0.0,39.0
Anger,stimuli/09F_AN_O.BMP,stimuli/12F_AN_O.BMP,stimuli/09F_AN_O.BMP,stimuli/EmptyFrame.bmp,stimuli/RedFrame.bmp,2,Anger,Female,3,1,1.0,175.65565490722656,175.65565490722656,0.0,179.64808654785156,179.64808654785156,0.0,178.6680145263672,178.6680145263672,0.0,1.0,1.0,0.0,'2',0.9517592191696167,0.9517592191696167,0.0,40.0
Anger,stimuli/34M_AN_O.BMP,stimuli/35M_AN_O.BMP,stimuli/34M_AN_O.BMP,stimuli/EmptyFrame.bmp,stimuli/RedFrame.bmp,2,Anger,Male,3,1,1.0,179.67453002929688,179.67453002929688,0.0,183.664794921875,183.664794921875,0.0,182.67449951171875,182.67449951171875,0.0,1.0,1.0,0.0,'2',1.0858910083770752,1.0858910083770752,0.0,41.0
Anger,stimuli/24M_AN_O.BMP,stimuli/24M_AN_O.BMP,stimuli/30M_AN_O.BMP,stimuli/EmptyFrame.bmp,stimuli/RedFrame.bmp,1,Anger,Male,3,1,1.0,183.68896484375,183.68896484375,0.0,187.6791229248047,187.6791229248047,0.0,186.69956970214844,186.69956970214844,0.0,1.0,1.0,0.0,'1',1.3341662883758545,1.3341662883758545,0.0,42.0
Anger,stimuli/03F_AN_O.bmp,stimuli/03F_AN_O.bmp,stimuli/17F_AN_O.BMP,stimuli/EmptyFrame.bmp,stimuli/RedFrame.bmp,1,Anger,Female,3,1,1.0,187.70884704589844,187.70884704589844,0.0,191.6896514892578,191.6896514892578,0.0,190.71044921875,190.71044921875,0.0,1.0,1.0,0.0,'1',0.9528005719184875,0.9528005719184875,0.0,43.0
MatchFaces,stimuli/MatchFaces.bmp,stimuli/EmptyFace.bmp,stimuli/EmptyFace.bmp,stimuli/EmptyFrame.bmp,stimuli/EmptyFrame.bmp,Null,None,None,3,1,1.0,191.82933044433594,191.82933044433594,0.0,195.69219970703125,195.69219970703125,0.0,194.7087860107422,194.7087860107422,0.0,0.0,0.0,0.0,,,,,44.0
Happy,stimuli/06F_HA_O.bmp,stimuli/07F_HA_O.BMP,stimuli/06F_HA_O.bmp,stimuli/EmptyFrame.bmp,stimuli/RedFrame.bmp,2,Happy,Female,3,1,1.0,195.74920654296875,195.74920654296875,0.0,199.71282958984375,199.71282958984375,0.0,198.73033142089844,198.73033142089844,0.0,1.0,1.0,0.0,'2',0.8582028150558472,0.8582028150558472,0.0,45.0
Happy,stimuli/13F_HA_O.BMP,stimuli/13F_HA_O.BMP,stimuli/12F_HA_O.BMP,stimuli/EmptyFrame.bmp,stimuli/RedFrame.bmp,1,Happy,Female,3,1,1.0,199.740966796875,199.740966796875,0.0,203.7284698486328,203.7284698486328,0.0,202.74913024902344,202.74913024902344,0.0,1.0,1.0,0.0,'1',0.7930054068565369,0.7930054068565369,0.0,46.0
Happy,stimuli/41M_HA_O.BMP,stimuli/41M_HA_O.BMP,stimuli/40M_HA_O.BMP,stimuli/EmptyFrame.bmp,stimuli/RedFrame.bmp,1,Happy,Male,3,1,1.0,203.75430297851562,203.75430297851562,0.0,207.74302673339844,207.74302673339844,0.0,206.7493896484375,206.7493896484375,0.0,1.0,1.0,0.0,'1',0.799031674861908,0.799031674861908,0.0,47.0
Happy,stimuli/03F_HA_O.bmp,stimuli/05F_HA_O.bmp,stimuli/03F_HA_O.bmp,stimuli/EmptyFrame.bmp,stimuli/RedFrame.bmp,2,Happy,Female,3,1,1.0,207.8017120361328,207.8017120361328,0.0,211.75424194335938,211.75424194335938,0.0,210.76779174804688,210.76779174804688,0.0,1.0,1.0,0.0,'2',0.8281766772270203,0.8281766772270203,0.0,48.0
Happy,stimuli/24M_HA_O.BMP,stimuli/24M_HA_O.BMP,stimuli/25M_HA_O.BMP,stimuli/EmptyFrame.bmp,stimuli/RedFrame.bmp,1,Happy,Male,3,1,1.0,211.7788848876953,211.7788848876953,0.0,215.77642822265625,215.77642822265625,0.0,214.79791259765625,214.79791259765625,0.0,1.0,1.0,0.0,'1',0.9141986966133118,0.9141986966133118,0.0,49.0
Happy,stimuli/19F_HA_O.BMP,stimuli/19F_HA_O.BMP,stimuli/18F_HA_O.BMP,stimuli/EmptyFrame.bmp,stimuli/RedFrame.bmp,1,Happy,Female,3,1,1.0,215.8076171875,215.8076171875,0.0,219.79490661621094,219.79490661621094,0.0,218.80532836914062,218.80532836914062,0.0,1.0,1.0,0.0,'1',1.027329444885254,1.027329444885254,0.0,50.0
Happy,stimuli/01F_HA_O.bmp,stimuli/01F_HA_O.bmp,stimuli/02F_HA_O.bmp,stimuli/EmptyFrame.bmp,stimuli/RedFrame.bmp,1,Happy,Female,3,1,1.0,219.8231201171875,219.8231201171875,0.0,223.80934143066406,223.80934143066406,0.0,222.81907653808594,222.81907653808594,0.0,1.0,1.0,0.0,'1',0.9482923150062561,0.9482923150062561,0.0,51.0
Happy,stimuli/22M_HA_O.BMP,stimuli/23M_HA_O.BMP,stimuli/22M_HA_O.BMP,stimuli/EmptyFrame.bmp,stimuli/RedFrame.bmp,2,Happy,Male,3,1,1.0,223.8400115966797,223.8400115966797,0.0,227.83424377441406,227.83424377441406,0.0,226.83775329589844,226.83775329589844,0.0,1.0,1.0,0.0,'2',0.9220249056816101,0.9220249056816101,0.0,52.0
Happy,stimuli/35M_HA_O.BMP,stimuli/34M_HA_O.BMP,stimuli/35M_HA_O.BMP,stimuli/EmptyFrame.bmp,stimuli/RedFrame.bmp,2,Happy,Male,3,1,1.0,227.86329650878906,227.86329650878906,0.0,231.85238647460938,231.85238647460938,0.0,230.86178588867188,230.86178588867188,0.0,1.0,1.0,0.0,'2',1.1294516324996948,1.1294516324996948,0.0,53.0
Happy,stimuli/39M_HA_O.BMP,stimuli/38M_HA_O.BMP,stimuli/39M_HA_O.BMP,stimuli/EmptyFrame.bmp,stimuli/RedFrame.bmp,2,Happy,Male,3,1,1.0,231.88284301757812,231.88284301757812,0.0,235.86859130859375,235.86859130859375,0.0,234.8793487548828,234.8793487548828,0.0,1.0,1.0,0.0,'2',0.9078270792961121,0.9078270792961121,0.0,54.0
Match Shape,stimuli/MatchShapes.bmp,stimuli/EmptyFace.bmp,stimuli/EmptyFace.bmp,stimuli/EmptyFrame.bmp,stimuli/EmptyFrame.bmp,Null,None,None,3,1,1.0,235.89102172851562,235.89102172851562,0.0,239.87380981445312,239.87380981445312,0.0,238.88681030273438,238.88681030273438,0.0,0.0,0.0,0.0,,,,,55.0
Shape,stimuli/horizontal.bmp,stimuli/horizontal.bmp,stimuli/vertical.bmp,stimuli/EmptyFrame.bmp,stimuli/RedFrame.bmp,1,Shape,None,3,1,1.0,239.903076171875,239.903076171875,0.0,243.8833465576172,243.8833465576172,0.0,242.8967742919922,242.8967742919922,0.0,1.0,1.0,0.0,'1',0.9667636156082153,0.9667636156082153,0.0,56.0
Shape,stimuli/horizontal.bmp,stimuli/horizontal.bmp,stimuli/circle.bmp,stimuli/EmptyFrame.bmp,stimuli/RedFrame.bmp,1,Shape,None,3,1,1.0,243.90420532226562,243.90420532226562,0.0,247.903076171875,247.903076171875,0.0,246.91050720214844,246.91050720214844,0.0,1.0,1.0,0.0,'1',0.752753496170044,0.752753496170044,0.0,57.0
Shape,stimuli/circle.bmp,stimuli/vertical.bmp,stimuli/circle.bmp,stimuli/EmptyFrame.bmp,stimuli/RedFrame.bmp,2,Shape,None,3,1,1.0,247.9270477294922,247.9270477294922,0.0,251.9140625,251.9140625,0.0,250.94842529296875,250.94842529296875,0.0,1.0,1.0,0.0,'2',0.6991572976112366,0.6991572976112366,0.0,58.0
Shape,stimuli/vertical.bmp,stimuli/vertical.bmp,stimuli/circle.bmp,stimuli/EmptyFrame.bmp,stimuli/RedFrame.bmp,1,Shape,None,3,1,1.0,251.93560791015625,251.93560791015625,0.0,255.93190002441406,255.93190002441406,0.0,254.94317626953125,254.94317626953125,0.0,1.0,1.0,0.0,'1',0.7516353130340576,0.7516353130340576,0.0,59.0
Shape,stimuli/horizontal.bmp,stimuli/horizontal.bmp,stimuli/circle.bmp,stimuli/EmptyFrame.bmp,stimuli/RedFrame.bmp,1,Shape,None,3,1,1.0,255.9517822265625,255.9517822265625,0.0,259.9501647949219,259.9501647949219,0.0,258.9641418457031,258.9641418457031,0.0,1.0,1.0,0.0,'1',0.5872895121574402,0.5872895121574402,0.0,60.0
Shape,stimuli/vertical.bmp,stimuli/vertical.bmp,stimuli/circle.bmp,stimuli/EmptyFrame.bmp,stimuli/RedFrame.bmp,1,Shape,None,3,1,1.0,259.9722595214844,259.9722595214844,0.0,263.9605407714844,263.9605407714844,0.0,262.9748840332031,262.9748840332031,0.0,1.0,1.0,0.0,'1',0.750257670879364,0.750257670879364,0.0,61.0
Shape,stimuli/horizontal.bmp,stimuli/circle.bmp,stimuli/horizontal.bmp,stimuli/EmptyFrame.bmp,stimuli/RedFrame.bmp,2,Shape,None,3,1,1.0,263.98345947265625,263.98345947265625,0.0,267.9764709472656,267.9764709472656,0.0,266.9919738769531,266.9919738769531,0.0,1.0,1.0,0.0,'2',0.8406906127929688,0.8406906127929688,0.0,62.0
Shape,stimuli/circle.bmp,stimuli/circle.bmp,stimuli/horizontal.bmp,stimuli/EmptyFrame.bmp,stimuli/RedFrame.bmp,1,Shape,None,3,1,1.0,268.00067138671875,268.00067138671875,0.0,271.9917907714844,271.9917907714844,0.0,270.9976501464844,270.9976501464844,0.0,1.0,1.0,0.0,'1',0.957044780254364,0.957044780254364,0.0,63.0
Shape,stimuli/circle.bmp,stimuli/horizontal.bmp,stimuli/circle.bmp,stimuli/EmptyFrame.bmp,stimuli/RedFrame.bmp,2,Shape,None,3,1,1.0,272.01531982421875,272.01531982421875,0.0,276.0057373046875,276.0057373046875,0.0,275.0274963378906,275.0274963378906,0.0,1.0,1.0,0.0,'2',0.9944903254508972,0.9944903254508972,0.0,64.0
Shape,stimuli/vertical.bmp,stimuli/vertical.bmp,stimuli/horizontal.bmp,stimuli/EmptyFrame.bmp,stimuli/RedFrame.bmp,1,Shape,None,3,1,1.0,276.0319519042969,276.0319519042969,0.0,280.01568603515625,280.01568603515625,0.0,279.04638671875,279.04638671875,0.0,1.0,1.0,0.0,'1',1.125551700592041,1.125551700592041,0.0,65.0
MatchFaces,stimuli/MatchFaces.bmp,stimuli/EmptyFace.bmp,stimuli/EmptyFace.bmp,stimuli/EmptyFrame.bmp,stimuli/EmptyFrame.bmp,Null,None,None,3,1,1.0,280.1640319824219,280.1640319824219,0.0,284.01983642578125,284.01983642578125,0.0,283.02734375,283.02734375,0.0,0.0,0.0,0.0,,,,,66.0
Neutral,stimuli/20M_NE_C.BMP,stimuli/21M_NE_C.BMP,stimuli/20M_NE_C.BMP,stimuli/EmptyFrame.bmp,stimuli/RedFrame.bmp,2,Neutral,Male,3,1,1.0,284.06475830078125,284.06475830078125,0.0,288.0341491699219,288.0341491699219,0.0,287.0483703613281,287.0483703613281,0.0,1.0,1.0,0.0,'2',2.4072823524475098,2.4072823524475098,0.0,67.0
Neutral,stimuli/01F_NE_C.bmp,stimuli/01F_NE_C.bmp,stimuli/02F_NE_C.bmp,stimuli/EmptyFrame.bmp,stimuli/RedFrame.bmp,1,Neutral,Female,3,1,1.0,288.0616149902344,288.0616149902344,0.0,292.0533752441406,292.0533752441406,0.0,291.06658935546875,291.06658935546875,0.0,1.0,1.0,0.0,'1',0.7608630061149597,0.7608630061149597,0.0,68.0
Neutral,stimuli/22M_NE_C.BMP,stimuli/23M_NE_C.BMP,stimuli/22M_NE_C.BMP,stimuli/EmptyFrame.bmp,stimuli/RedFrame.bmp,2,Neutral,Male,3,1,1.0,292.0901794433594,292.0901794433594,0.0,296.0683898925781,296.0683898925781,0.0,295.10845947265625,295.10845947265625,0.0,1.0,1.0,0.0,'2',1.0284218788146973,1.0284218788146973,0.0,69.0
Neutral,stimuli/24M_NE_C.BMP,stimuli/24M_NE_C.BMP,stimuli/25M_NE_C.BMP,stimuli/EmptyFrame.bmp,stimuli/RedFrame.bmp,1,Neutral,Male,3,1,1.0,296.094970703125,296.094970703125,0.0,300.0877685546875,300.0877685546875,0.0,299.092529296875,299.092529296875,0.0,1.0,1.0,0.0,'1',1.0305588245391846,1.0305588245391846,0.0,70.0
Neutral,stimuli/03F_NE_C.bmp,stimuli/05F_NE_C.bmp,stimuli/03F_NE_C.bmp,stimuli/EmptyFrame.bmp,stimuli/RedFrame.bmp,2,Neutral,Female,3,1,1.0,300.1160888671875,300.1160888671875,0.0,304.11383056640625,304.11383056640625,0.0,303.1229248046875,303.1229248046875,0.0,1.0,1.0,0.0,'2',0.9003276824951172,0.9003276824951172,0.0,71.0
Neutral,stimuli/26M_NE_C.BMP,stimuli/26M_NE_C.BMP,stimuli/27M_NE_C.BMP,stimuli/EmptyFrame.bmp,stimuli/RedFrame.bmp,1,Neutral,Male,3,1,1.0,304.144775390625,304.144775390625,0.0,308.1309509277344,308.1309509277344,0.0,307.14129638671875,307.14129638671875,0.0,1.0,1.0,0.0,'1',0.9635074734687805,0.9635074734687805,0.0,72.0
Neutral,stimuli/06F_NE_C.bmp,stimuli/07F_NE_C.BMP,stimuli/06F_NE_C.bmp,stimuli/EmptyFrame.bmp,stimuli/RedFrame.bmp,2,Neutral,Female,3,1,1.0,308.1583251953125,308.1583251953125,0.0,312.1440734863281,312.1440734863281,0.0,311.1714172363281,311.1714172363281,0.0,1.0,1.0,0.0,'2',0.7964088916778564,0.7964088916778564,0.0,73.0
Neutral,stimuli/08F_NE_C.BMP,stimuli/08F_NE_C.BMP,stimuli/09F_NE_C.BMP,stimuli/EmptyFrame.bmp,stimuli/RedFrame.bmp,1,Neutral,Female,3,1,1.0,312.1707458496094,312.1707458496094,0.0,316.1584167480469,316.1584167480469,0.0,315.1939392089844,315.1939392089844,0.0,1.0,1.0,0.0,'1',0.9102728962898254,0.9102728962898254,0.0,74.0
Neutral,stimuli/28M_NE_C.BMP,stimuli/29M_NE_C.BMP,stimuli/28M_NE_C.BMP,stimuli/EmptyFrame.bmp,stimuli/RedFrame.bmp,2,Neutral,Male,3,1,1.0,316.1847839355469,316.1847839355469,0.0,320.1703796386719,320.1703796386719,0.0,319.1878967285156,319.1878967285156,0.0,1.0,1.0,0.0,'2',1.084978461265564,1.084978461265564,0.0,75.0
Neutral,stimuli/10F_NE_C.BMP,stimuli/10F_NE_C.BMP,stimuli/06F_NE_C.bmp,stimuli/EmptyFrame.bmp,stimuli/RedFrame.bmp,1,Neutral,Female,3,1,1.0,320.19482421875,320.19482421875,0.0,324.18377685546875,324.18377685546875,0.0,323.1930847167969,323.1930847167969,0.0,1.0,1.0,0.0,'1',0.6272891759872437,0.6272891759872437,0.0,76.0
MatchFaces,stimuli/MatchFaces.bmp,stimuli/EmptyFace.bmp,stimuli/EmptyFace.bmp,stimuli/EmptyFrame.bmp,stimuli/EmptyFrame.bmp,Null,None,None,3,1,1.0,324.3285217285156,324.3285217285156,0.0,328.1891784667969,328.1891784667969,0.0,327.1947937011719,327.1947937011719,0.0,0.0,0.0,0.0,,,,,77.0
Happy,stimuli/28M_HA_O.BMP,stimuli/29M_HA_O.BMP,stimuli/28M_HA_O.BMP,stimuli/EmptyFrame.bmp,stimuli/RedFrame.bmp,2,Happy,Male,3,1,1.0,328.2430725097656,328.2430725097656,0.0,332.1994934082031,332.1994934082031,0.0,331.2198181152344,331.2198181152344,0.0,1.0,1.0,0.0,'2',1.0010677576065063,1.0010677576065063,0.0,78.0
Happy,stimuli/10F_HA_O.BMP,stimuli/10F_HA_O.BMP,stimuli/06F_HA_O.bmp,stimuli/EmptyFrame.bmp,stimuli/RedFrame.bmp,1,Happy,Female,3,1,1.0,332.2630615234375,332.2630615234375,0.0,336.21026611328125,336.21026611328125,0.0,335.222412109375,335.222412109375,0.0,1.0,1.0,0.0,'1',0.805986225605011,0.805986225605011,0.0,79.0
Happy,stimuli/26M_HA_O.BMP,stimuli/26M_HA_O.BMP,stimuli/27M_HA_O.BMP,stimuli/EmptyFrame.bmp,stimuli/RedFrame.bmp,1,Happy,Male,3,1,1.0,336.2364807128906,336.2364807128906,0.0,340.22247314453125,340.22247314453125,0.0,339.24053955078125,339.24053955078125,0.0,1.0,1.0,0.0,'1',0.8060324192047119,0.8060324192047119,0.0,80.0
Happy,stimuli/20M_HA_O.BMP,stimuli/21M_HA_O.BMP,stimuli/20M_HA_O.BMP,stimuli/EmptyFrame.bmp,stimuli/RedFrame.bmp,2,Happy,Male,3,1,1.0,340.24932861328125,340.24932861328125,0.0,344.23992919921875,344.23992919921875,0.0,343.253662109375,343.253662109375,0.0,1.0,1.0,0.0,'2',0.7746480703353882,0.7746480703353882,0.0,81.0
Happy,stimuli/37M_HA_O.BMP,stimuli/37M_HA_O.BMP,stimuli/36M_HA_O.BMP,stimuli/EmptyFrame.bmp,stimuli/RedFrame.bmp,1,Happy,Male,3,1,1.0,344.26495361328125,344.26495361328125,0.0,348.2583312988281,348.2583312988281,0.0,347.26629638671875,347.26629638671875,0.0,1.0,1.0,0.0,'1',0.7887749075889587,0.7887749075889587,0.0,82.0
Happy,stimuli/43M_HA_O.BMP,stimuli/42M_HA_O.BMP,stimuli/43M_HA_O.BMP,stimuli/EmptyFrame.bmp,stimuli/RedFrame.bmp,2,Happy,Male,3,1,1.0,348.28662109375,348.28662109375,0.0,352.2720642089844,352.2720642089844,0.0,351.2946472167969,351.2946472167969,0.0,1.0,1.0,0.0,'2',0.9891372919082642,0.9891372919082642,0.0,83.0
Happy,stimuli/11F_HA_O.BMP,stimuli/10F_HA_O.BMP,stimuli/11F_HA_O.BMP,stimuli/EmptyFrame.bmp,stimuli/RedFrame.bmp,2,Happy,Female,3,1,1.0,352.29888916015625,352.29888916015625,0.0,356.293701171875,356.293701171875,0.0,355.2979431152344,355.2979431152344,0.0,1.0,1.0,0.0,'2',0.7365385890007019,0.7365385890007019,0.0,84.0
Happy,stimuli/17F_HA_O.BMP,stimuli/16F_HA_O.BMP,stimuli/17F_HA_O.BMP,stimuli/EmptyFrame.bmp,stimuli/RedFrame.bmp,2,Happy,Female,3,1,1.0,356.322265625,356.322265625,0.0,360.3053283691406,360.3053283691406,0.0,359.3238525390625,359.3238525390625,0.0,1.0,1.0,0.0,'2',1.5850154161453247,1.5850154161453247,0.0,85.0
Happy,stimuli/15F_HA_O.BMP,stimuli/15F_HA_O.BMP,stimuli/14F_HA_O.BMP,stimuli/EmptyFrame.bmp,stimuli/RedFrame.bmp,1,Happy,Female,3,1,1.0,360.3323974609375,360.3323974609375,0.0,364.3229064941406,364.3229064941406,0.0,363.336669921875,363.336669921875,0.0,1.0,1.0,0.0,'1',1.526038408279419,1.526038408279419,0.0,86.0
Happy,stimuli/08F_HA_O.BMP,stimuli/08F_HA_O.BMP,stimuli/09F_HA_O.BMP,stimuli/EmptyFrame.bmp,stimuli/RedFrame.bmp,1,Happy,Female,3,1,1.0,364.3479309082031,364.3479309082031,0.0,368.3412780761719,368.3412780761719,0.0,367.35302734375,367.35302734375,0.0,1.0,1.0,0.0,'1',1.662193775177002,1.662193775177002,0.0,87.0
MatchFaces,stimuli/MatchFaces.bmp,stimuli/EmptyFace.bmp,stimuli/EmptyFace.bmp,stimuli/EmptyFrame.bmp,stimuli/EmptyFrame.bmp,Null,None,None,3,1,1.0,368.48187255859375,368.48187255859375,0.0,372.3543395996094,372.3543395996094,0.0,371.35406494140625,371.35406494140625,0.0,0.0,0.0,0.0,,,,,88.0
Fear,stimuli/34M_FE_O.BMP,stimuli/34M_FE_O.BMP,stimuli/33M_FE_O.BMP,stimuli/EmptyFrame.bmp,stimuli/RedFrame.bmp,1,Fear,Male,3,1,1.0,372.43182373046875,372.43182373046875,0.0,376.3707275390625,376.3707275390625,0.0,375.3836975097656,375.3836975097656,0.0,1.0,1.0,0.0,'1',1.7654836177825928,1.7654836177825928,0.0,89.0
Fear,stimuli/28M_FE_O.BMP,stimuli/28M_FE_O.BMP,stimuli/25M_FE_O.BMP,stimuli/EmptyFrame.bmp,stimuli/RedFrame.bmp,1,Fear,Male,3,1,1.0,376.3941650390625,376.3941650390625,0.0,380.3901062011719,380.3901062011719,0.0,379.3979797363281,379.3979797363281,0.0,1.0,1.0,0.0,'1',1.0134252309799194,1.0134252309799194,0.0,90.0
Fear,stimuli/11F_FE_O.BMP,stimuli/10F_FE_O.BMP,stimuli/11F_FE_O.BMP,stimuli/EmptyFrame.bmp,stimuli/RedFrame.bmp,2,Fear,Female,3,1,1.0,380.4126281738281,380.4126281738281,0.0,384.4004821777344,384.4004821777344,0.0,383.4184875488281,383.4184875488281,0.0,1.0,1.0,0.0,'2',0.6801881790161133,0.6801881790161133,0.0,91.0
Fear,stimuli/27M_FE_O.BMP,stimuli/26M_FE_O.BMP,stimuli/27M_FE_O.BMP,stimuli/EmptyFrame.bmp,stimuli/RedFrame.bmp,2,Fear,Male,3,1,1.0,384.4236755371094,384.4236755371094,0.0,388.4127502441406,388.4127502441406,0.0,387.4276123046875,387.4276123046875,0.0,1.0,1.0,0.0,'2',0.8813275098800659,0.8813275098800659,0.0,92.0
Fear,stimuli/11F_FE_O.BMP,stimuli/12F_FE_O.BMP,stimuli/11F_FE_O.BMP,stimuli/EmptyFrame.bmp,stimuli/RedFrame.bmp,2,Fear,Female,3,1,1.0,388.47149658203125,388.47149658203125,0.0,392.4236145019531,392.4236145019531,0.0,391.44384765625,391.44384765625,0.0,1.0,1.0,0.0,'2',0.8877485990524292,0.8877485990524292,0.0,93.0
Fear,stimuli/31M_FE_O.BMP,stimuli/31M_FE_O.BMP,stimuli/38M_FE_O.BMP,stimuli/EmptyFrame.bmp,stimuli/RedFrame.bmp,1,Fear,Male,3,1,1.0,392.4538879394531,392.4538879394531,0.0,396.43841552734375,396.43841552734375,0.0,395.45477294921875,395.45477294921875,0.0,1.0,1.0,0.0,'1',0.8974655270576477,0.8974655270576477,0.0,94.0
Fear,stimuli/29M_FE_O.BMP,stimuli/29M_FE_O.BMP,stimuli/24M_FE_O.BMP,stimuli/EmptyFrame.bmp,stimuli/RedFrame.bmp,1,Fear,Male,3,1,1.0,396.46337890625,396.46337890625,0.0,400.4525146484375,400.4525146484375,0.0,399.467041015625,399.467041015625,0.0,1.0,1.0,0.0,'1',1.1424158811569214,1.1424158811569214,0.0,95.0
Fear,stimuli/25M_FE_O.BMP,stimuli/29M_FE_O.BMP,stimuli/25M_FE_O.BMP,stimuli/EmptyFrame.bmp,stimuli/RedFrame.bmp,2,Fear,Male,3,1,1.0,400.4764099121094,400.4764099121094,0.0,404.4678039550781,404.4678039550781,0.0,403.477294921875,403.477294921875,0.0,1.0,1.0,0.0,'2',1.2752488851547241,1.2752488851547241,0.0,96.0
Fear,stimuli/15F_FE_O.BMP,stimuli/18F_FE_O.BMP,stimuli/15F_FE_O.BMP,stimuli/EmptyFrame.bmp,stimuli/RedFrame.bmp,2,Fear,Female,3,1,1.0,404.49462890625,404.49462890625,0.0,408.48577880859375,408.48577880859375,0.0,407.501953125,407.501953125,0.0,1.0,1.0,0.0,'2',1.3544292449951172,1.3544292449951172,0.0,97.0
Fear,stimuli/09F_FE_O.BMP,stimuli/09F_FE_O.BMP,stimuli/12F_FE_O.BMP,stimuli/EmptyFrame.bmp,stimuli/RedFrame.bmp,1,Fear,Female,3,1,1.0,408.5104064941406,408.5104064941406,0.0,412.498291015625,412.498291015625,0.0,411.5067443847656,411.5067443847656,0.0,1.0,1.0,0.0,'1',0.8285942077636719,0.8285942077636719,0.0,98.0
MatchFaces,stimuli/MatchFaces.bmp,stimuli/EmptyFace.bmp,stimuli/EmptyFace.bmp,stimuli/EmptyFrame.bmp,stimuli/EmptyFrame.bmp,Null,None,None,3,1,1.0,412.63470458984375,412.63470458984375,0.0,416.50091552734375,416.50091552734375,0.0,415.5083312988281,415.5083312988281,0.0,0.0,0.0,0.0,,,,,99.0
Anger,stimuli/23M_AN_O.BMP,stimuli/23M_AN_O.BMP,stimuli/31M_AN_O.BMP,stimuli/EmptyFrame.bmp,stimuli/RedFrame.bmp,1,Anger,Male,3,1,1.0,416.5553283691406,416.5553283691406,0.0,420.5162048339844,420.5162048339844,0.0,419.5274658203125,419.5274658203125,0.0,1.0,1.0,0.0,'1',0.9359745979309082,0.9359745979309082,0.0,100.0
Anger,stimuli/36M_AN_O.BMP,stimuli/37M_AN_O.BMP,stimuli/36M_AN_O.BMP,stimuli/EmptyFrame.bmp,stimuli/RedFrame.bmp,2,Anger,Male,3,1,1.0,420.5427551269531,420.5427551269531,0.0,424.5291442871094,424.5291442871094,0.0,423.5419006347656,423.5419006347656,0.0,1.0,1.0,0.0,'2',1.0986732244491577,1.0986732244491577,0.0,101.0
Anger,stimuli/38M_AN_O.BMP,stimuli/39M_AN_O.BMP,stimuli/38M_AN_O.BMP,stimuli/EmptyFrame.bmp,stimuli/RedFrame.bmp,2,Anger,Male,3,1,1.0,424.5540771484375,424.5540771484375,0.0,428.5502014160156,428.5502014160156,0.0,427.5612487792969,427.5612487792969,0.0,1.0,1.0,0.0,'2',1.4506150484085083,1.4506150484085083,0.0,102.0
Anger,stimuli/02f_an_o.bmp,stimuli/18F_AN_O.BMP,stimuli/02f_an_o.bmp,stimuli/EmptyFrame.bmp,stimuli/RedFrame.bmp,2,Anger,Female,3,1,1.0,428.58056640625,428.58056640625,0.0,432.5743103027344,432.5743103027344,0.0,431.5734558105469,431.5734558105469,0.0,1.0,1.0,0.0,'2',1.2543120384216309,1.2543120384216309,0.0,103.0
Anger,stimuli/22M_AN_O.BMP,stimuli/32M_AN_O.BMP,stimuli/22M_AN_O.BMP,stimuli/EmptyFrame.bmp,stimuli/RedFrame.bmp,2,Anger,Male,3,1,1.0,432.6138000488281,432.6138000488281,0.0,436.595458984375,436.595458984375,0.0,435.6015625,435.6015625,0.0,1.0,1.0,0.0,'2',1.2381629943847656,1.2381629943847656,0.0,104.0
Anger,stimuli/12F_AN_O.BMP,stimuli/12F_AN_O.BMP,stimuli/13F_AN_O.BMP,stimuli/EmptyFrame.bmp,stimuli/RedFrame.bmp,1,Anger,Female,3,1,1.0,436.6184387207031,436.6184387207031,0.0,440.607421875,440.607421875,0.0,439.6291198730469,439.6291198730469,0.0,1.0,1.0,0.0,'1',1.2220481634140015,1.2220481634140015,0.0,105.0
Anger,stimuli/05F_AN_O.bmp,stimuli/05F_AN_O.bmp,stimuli/16F_AN_O.BMP,stimuli/EmptyFrame.bmp,stimuli/RedFrame.bmp,1,Anger,Female,3,1,1.0,440.6408386230469,440.6408386230469,0.0,444.62554931640625,444.62554931640625,0.0,443.65313720703125,443.65313720703125,0.0,1.0,1.0,0.0,'1',1.4114489555358887,1.4114489555358887,0.0,106.0
Anger,stimuli/21M_AN_O.BMP,stimuli/21M_AN_O.BMP,stimuli/33M_AN_O.BMP,stimuli/EmptyFrame.bmp,stimuli/RedFrame.bmp,1,Anger,Male,3,1,1.0,444.65716552734375,444.65716552734375,0.0,448.63592529296875,448.63592529296875,0.0,447.65399169921875,447.65399169921875,0.0,1.0,1.0,0.0,'1',1.8324079513549805,1.8324079513549805,0.0,107.0
Anger,stimuli/07F_AN_O.BMP,stimuli/07F_AN_O.BMP,stimuli/14F_AN_O.BMP,stimuli/EmptyFrame.bmp,stimuli/RedFrame.bmp,1,Anger,Female,3,1,1.0,448.66162109375,448.66162109375,0.0,452.6481628417969,452.6481628417969,0.0,451.6618957519531,451.6618957519531,0.0,1.0,1.0,0.0,'1',1.7601730823516846,1.7601730823516846,0.0,108.0
Anger,stimuli/10F_AN_O.BMP,stimuli/10F_AN_O.BMP,stimuli/11F_AN_O.BMP,stimuli/EmptyFrame.bmp,stimuli/RedFrame.bmp,1,Anger,Female,3,1,1.0,452.6736755371094,452.6736755371094,0.0,456.6611022949219,456.6611022949219,0.0,455.6885070800781,455.6885070800781,0.0,1.0,1.0,0.0,'1',1.1522314548492432,1.1522314548492432,0.0,109.0

extraInfo
participant,sub023
session,002
date,2025_Jul_30_0905
expName,HaririTask_Ver2
psychopyVersion,3.0.1
frameRate,None
