TrialType,Top,Left,Right,EmptyFrame,SelectedFrame,Correct,Emotion,Gender,TrialLength,FixationLength,n,GCFaceStartTime_mean,GCFaceStartTime_raw,GCFaceStartTime_std,GCPostFaceFixationEndTime_mean,GCPostFaceFixationEndTime_raw,GCPostFaceFixationEndTime_std,GCPostFaceFixationStartTime_mean,GCPostFaceFixationStartTime_raw,GCPostFaceFixationStartTime_std,key_resp_trial.corr_mean,key_resp_trial.corr_raw,key_resp_trial.corr_std,key_resp_trial.keys_raw,key_resp_trial.rt_mean,key_resp_trial.rt_raw,key_resp_trial.rt_std,order
MatchFaces,stimuli/MatchFaces.bmp,stimuli/EmptyFace.bmp,stimuli/EmptyFace.bmp,stimuli/EmptyFrame.bmp,stimuli/EmptyFrame.bmp,Null,None,None,3,1,1.0,15.280351638793945,15.280351638793945,0.0,19.046579360961914,19.046579360961914,0.0,18.048336029052734,18.048336029052734,0.0,0.0,0.0,0.0,,,,,0.0
Fear,stimuli/23M_FE_O.BMP,stimuli/23M_FE_O.BMP,stimuli/24M_FE_O.BMP,stimuli/EmptyFrame.bmp,stimuli/RedFrame.bmp,1,Fear,Male,3,1,1.0,19.213428497314453,19.213428497314453,0.0,23.06722640991211,23.06722640991211,0.0,22.078380584716797,22.078380584716797,0.0,1.0,1.0,0.0,'1',1.5862890481948853,1.5862890481948853,0.0,1.0
Fear,stimuli/19F_FE_O.BMP,stimuli/18F_FE_O.BMP,stimuli/19F_FE_O.BMP,stimuli/EmptyFrame.bmp,stimuli/RedFrame.bmp,2,Fear,Female,3,1,1.0,23.094390869140625,23.094390869140625,0.0,27.07724952697754,27.07724952697754,0.0,26.091543197631836,26.091543197631836,0.0,1.0,1.0,0.0,'2',1.2217577695846558,1.2217577695846558,0.0,2.0
Fear,stimuli/17F_FE_O.BMP,stimuli/17F_FE_O.BMP,stimuli/16F_FE_O.BMP,stimuli/EmptyFrame.bmp,stimuli/RedFrame.bmp,1,Fear,Female,3,1,1.0,27.101560592651367,27.101560592651367,0.0,31.0895938873291,31.0895938873291,0.0,30.109779357910156,30.109779357910156,0.0,1.0,1.0,0.0,'1',1.0679867267608643,1.0679867267608643,0.0,3.0
Fear,stimuli/21M_FE_O.BMP,stimuli/21M_FE_O.BMP,stimuli/22M_FE_O.BMP,stimuli/EmptyFrame.bmp,stimuli/RedFrame.bmp,1,Fear,Male,3,1,1.0,31.112564086914062,31.112564086914062,0.0,35.10588455200195,35.10588455200195,0.0,34.111427307128906,34.111427307128906,0.0,1.0,1.0,0.0,'1',1.485771894454956,1.485771894454956,0.0,4.0
Fear,stimuli/09F_FE_O.BMP,stimuli/07F_FE_O.BMP,stimuli/09F_FE_O.BMP,stimuli/EmptyFrame.bmp,stimuli/RedFrame.bmp,2,Fear,Female,3,1,1.0,35.13158416748047,35.13158416748047,0.0,39.119380950927734,39.119380950927734,0.0,38.135440826416016,38.135440826416016,0.0,1.0,1.0,0.0,'2',1.5624125003814697,1.5624125003814697,0.0,5.0
Fear,stimuli/08F_FE_O.BMP,stimuli/13F_FE_O.BMP,stimuli/08F_FE_O.BMP,stimuli/EmptyFrame.bmp,stimuli/RedFrame.bmp,2,Fear,Female,3,1,1.0,39.14580535888672,39.14580535888672,0.0,43.13484191894531,43.13484191894531,0.0,42.14615249633789,42.14615249633789,0.0,1.0,1.0,0.0,'2',1.124729037284851,1.124729037284851,0.0,6.0
Fear,stimuli/07F_FE_O.BMP,stimuli/07F_FE_O.BMP,stimuli/14F_FE_O.BMP,stimuli/EmptyFrame.bmp,stimuli/RedFrame.bmp,1,Fear,Female,3,1,1.0,43.1594352722168,43.1594352722168,0.0,47.14902877807617,47.14902877807617,0.0,46.16626739501953,46.16626739501953,0.0,1.0,1.0,0.0,'1',0.8559812903404236,0.8559812903404236,0.0,7.0
Fear,stimuli/26M_FE_O.BMP,stimuli/26M_FE_O.BMP,stimuli/28M_FE_O.BMP,stimuli/EmptyFrame.bmp,stimuli/RedFrame.bmp,1,Fear,Male,3,1,1.0,47.173988342285156,47.173988342285156,0.0,51.16160583496094,51.16160583496094,0.0,50.17879104614258,50.17879104614258,0.0,1.0,1.0,0.0,'1',0.8587839007377625,0.8587839007377625,0.0,8.0
Fear,stimuli/10F_FE_O.BMP,stimuli/11F_FE_O.BMP,stimuli/10F_FE_O.BMP,stimuli/EmptyFrame.bmp,stimuli/RedFrame.bmp,2,Fear,Female,3,1,1.0,51.1818733215332,51.1818733215332,0.0,55.1771125793457,55.1771125793457,0.0,54.1886100769043,54.1886100769043,0.0,1.0,1.0,0.0,'2',0.6405596137046814,0.6405596137046814,0.0,9.0
Fear,stimuli/29M_FE_O.BMP,stimuli/30M_FE_O.BMP,stimuli/29M_FE_O.BMP,stimuli/EmptyFrame.bmp,stimuli/RedFrame.bmp,2,Fear,Male,3,1,1.0,55.20216369628906,55.20216369628906,0.0,59.20237731933594,59.20237731933594,0.0,58.21170425415039,58.21170425415039,0.0,1.0,1.0,0.0,'2',0.9650474786758423,0.9650474786758423,0.0,10.0
MatchFaces,stimuli/MatchFaces.bmp,stimuli/EmptyFace.bmp,stimuli/EmptyFace.bmp,stimuli/EmptyFrame.bmp,stimuli/EmptyFrame.bmp,Null,None,None,3,1,1.0,59.3685188293457,59.3685188293457,0.0,63.214176177978516,63.214176177978516,0.0,62.21927261352539,62.21927261352539,0.0,0.0,0.0,0.0,,,,,11.0
Neutral,stimuli/07F_NE_C.BMP,stimuli/07F_NE_C.BMP,stimuli/14F_NE_C.BMP,stimuli/EmptyFrame.bmp,stimuli/RedFrame.bmp,1,Neutral,Female,3,1,1.0,63.264015197753906,63.264015197753906,0.0,67.22815704345703,67.22815704345703,0.0,66.24927520751953,66.24927520751953,0.0,1.0,1.0,0.0,'1',0.8358994126319885,0.8358994126319885,0.0,12.0
Neutral,stimuli/25M_NE_C.BMP,stimuli/29M_NE_C.BMP,stimuli/25M_NE_C.BMP,stimuli/EmptyFrame.bmp,stimuli/RedFrame.bmp,2,Neutral,Male,3,1,1.0,67.25467681884766,67.25467681884766,0.0,71.23871612548828,71.23871612548828,0.0,70.26234436035156,70.26234436035156,0.0,1.0,1.0,0.0,'2',0.7871310114860535,0.7871310114860535,0.0,13.0
Neutral,stimuli/26M_NE_C.BMP,stimuli/26M_NE_C.BMP,stimuli/28M_NE_C.BMP,stimuli/EmptyFrame.bmp,stimuli/RedFrame.bmp,1,Neutral,Male,3,1,1.0,71.26826477050781,71.26826477050781,0.0,75.25425720214844,75.25425720214844,0.0,74.27202606201172,74.27202606201172,0.0,1.0,1.0,0.0,'1',0.7704218029975891,0.7704218029975891,0.0,14.0
Neutral,stimuli/08F_NE_C.BMP,stimuli/13F_NE_C.BMP,stimuli/08F_NE_C.BMP,stimuli/EmptyFrame.bmp,stimuli/RedFrame.bmp,2,Neutral,Female,3,1,1.0,75.28205871582031,75.28205871582031,0.0,79.27165222167969,79.27165222167969,0.0,78.2857666015625,78.2857666015625,0.0,1.0,1.0,0.0,'2',0.8348912000656128,0.8348912000656128,0.0,15.0
Neutral,stimuli/09F_NE_C.BMP,stimuli/09F_NE_C.BMP,stimuli/12F_NE_C.BMP,stimuli/EmptyFrame.bmp,stimuli/RedFrame.bmp,1,Neutral,Female,3,1,1.0,79.3018569946289,79.3018569946289,0.0,83.2908935546875,83.2908935546875,0.0,82.2990493774414,82.2990493774414,0.0,1.0,1.0,0.0,'1',0.733120322227478,0.733120322227478,0.0,16.0
Neutral,stimuli/27M_NE_C.BMP,stimuli/26M_NE_C.BMP,stimuli/27M_NE_C.BMP,stimuli/EmptyFrame.bmp,stimuli/RedFrame.bmp,2,Neutral,Male,3,1,1.0,83.31621551513672,83.31621551513672,0.0,87.31128692626953,87.31128692626953,0.0,86.31250762939453,86.31250762939453,0.0,1.0,1.0,0.0,'2',1.0342143774032593,1.0342143774032593,0.0,17.0
Neutral,stimuli/28M_NE_C.BMP,stimuli/28M_NE_C.BMP,stimuli/25M_NE_C.BMP,stimuli/EmptyFrame.bmp,stimuli/RedFrame.bmp,1,Neutral,Male,3,1,1.0,87.33587646484375,87.33587646484375,0.0,91.33204650878906,91.33204650878906,0.0,90.33493041992188,90.33493041992188,0.0,1.0,1.0,0.0,'1',0.9113402962684631,0.9113402962684631,0.0,18.0
Neutral,stimuli/10F_NE_C.BMP,stimuli/11F_NE_C.BMP,stimuli/10F_NE_C.BMP,stimuli/EmptyFrame.bmp,stimuli/RedFrame.bmp,2,Neutral,Female,3,1,1.0,91.35822296142578,91.35822296142578,0.0,95.34388732910156,95.34388732910156,0.0,94.36580657958984,94.36580657958984,0.0,1.0,1.0,0.0,'2',0.6720020174980164,0.6720020174980164,0.0,19.0
Neutral,stimuli/29M_NE_C.BMP,stimuli/29M_NE_C.BMP,stimuli/24M_NE_C.BMP,stimuli/EmptyFrame.bmp,stimuli/RedFrame.bmp,1,Neutral,Male,3,1,1.0,95.36690521240234,95.36690521240234,0.0,99.36051940917969,99.36051940917969,0.0,98.36532592773438,98.36532592773438,0.0,1.0,1.0,0.0,'1',0.8765276074409485,0.8765276074409485,0.0,20.0
Neutral,stimuli/11F_NE_C.BMP,stimuli/10F_NE_C.BMP,stimuli/11F_NE_C.BMP,stimuli/EmptyFrame.bmp,stimuli/RedFrame.bmp,2,Neutral,Female,3,1,1.0,99.3848648071289,99.3848648071289,0.0,103.37924194335938,103.37924194335938,0.0,102.38842010498047,102.38842010498047,0.0,1.0,1.0,0.0,'2',1.0015250444412231,1.0015250444412231,0.0,21.0
MatchShape,stimuli/MatchShapes.bmp,stimuli/EmptyFace.bmp,stimuli/EmptyFace.bmp,stimuli/EmptyFrame.bmp,stimuli/EmptyFrame.bmp,Null,None,None,3,1,1.0,103.40930938720703,103.40930938720703,0.0,107.38556671142578,107.38556671142578,0.0,106.39895629882812,106.39895629882812,0.0,0.0,0.0,0.0,,,,,22.0
Shape,stimuli/circle.bmp,stimuli/vertical.bmp,stimuli/circle.bmp,stimuli/EmptyFrame.bmp,stimuli/RedFrame.bmp,2,Shape,None,3,1,1.0,107.42117309570312,107.42117309570312,0.0,111.40953826904297,111.40953826904297,0.0,110.41197967529297,110.41197967529297,0.0,1.0,1.0,0.0,'2',0.8313413858413696,0.8313413858413696,0.0,23.0
Shape,stimuli/horizontal.bmp,stimuli/circle.bmp,stimuli/horizontal.bmp,stimuli/EmptyFrame.bmp,stimuli/RedFrame.bmp,2,Shape,None,3,1,1.0,111.43778228759766,111.43778228759766,0.0,115.4240951538086,115.4240951538086,0.0,114.44049835205078,114.44049835205078,0.0,1.0,1.0,0.0,'2',1.0688538551330566,1.0688538551330566,0.0,24.0
Shape,stimuli/circle.bmp,stimuli/vertical.bmp,stimuli/circle.bmp,stimuli/EmptyFrame.bmp,stimuli/RedFrame.bmp,2,Shape,None,3,1,1.0,115.44597625732422,115.44597625732422,0.0,119.43859100341797,119.43859100341797,0.0,118.4486083984375,118.4486083984375,0.0,1.0,1.0,0.0,'2',0.666407585144043,0.666407585144043,0.0,25.0
Shape,stimuli/vertical.bmp,stimuli/circle.bmp,stimuli/vertical.bmp,stimuli/EmptyFrame.bmp,stimuli/RedFrame.bmp,2,Shape,None,3,1,1.0,119.46107482910156,119.46107482910156,0.0,123.45880126953125,123.45880126953125,0.0,122.46695709228516,122.46695709228516,0.0,1.0,1.0,0.0,'2',0.7600498795509338,0.7600498795509338,0.0,26.0
Shape,stimuli/vertical.bmp,stimuli/horizontal.bmp,stimuli/vertical.bmp,stimuli/EmptyFrame.bmp,stimuli/RedFrame.bmp,2,Shape,None,3,1,1.0,123.48202514648438,123.48202514648438,0.0,127.47856903076172,127.47856903076172,0.0,126.4888916015625,126.4888916015625,0.0,1.0,1.0,0.0,'2',1.2270939350128174,1.2270939350128174,0.0,27.0
Shape,stimuli/horizontal.bmp,stimuli/horizontal.bmp,stimuli/vertical.bmp,stimuli/EmptyFrame.bmp,stimuli/RedFrame.bmp,1,Shape,None,3,1,1.0,127.50224304199219,127.50224304199219,0.0,131.49713134765625,131.49713134765625,0.0,130.50735473632812,130.50735473632812,0.0,1.0,1.0,0.0,'1',1.0456186532974243,1.0456186532974243,0.0,28.0
Shape,stimuli/horizontal.bmp,stimuli/circle.bmp,stimuli/horizontal.bmp,stimuli/EmptyFrame.bmp,stimuli/RedFrame.bmp,2,Shape,None,3,1,1.0,131.51766967773438,131.51766967773438,0.0,135.50595092773438,135.50595092773438,0.0,134.5216064453125,134.5216064453125,0.0,1.0,1.0,0.0,'2',0.7659608721733093,0.7659608721733093,0.0,29.0
Shape,stimuli/circle.bmp,stimuli/circle.bmp,stimuli/vertical.bmp,stimuli/EmptyFrame.bmp,stimuli/RedFrame.bmp,1,Shape,None,3,1,1.0,135.5302734375,135.5302734375,0.0,139.52764892578125,139.52764892578125,0.0,138.5353240966797,138.5353240966797,0.0,1.0,1.0,0.0,'1',0.9224740862846375,0.9224740862846375,0.0,30.0
Shape,stimuli/vertical.bmp,stimuli/horizontal.bmp,stimuli/vertical.bmp,stimuli/EmptyFrame.bmp,stimuli/RedFrame.bmp,2,Shape,None,3,1,1.0,139.55148315429688,139.55148315429688,0.0,143.53810119628906,143.53810119628906,0.0,142.5525360107422,142.5525360107422,0.0,1.0,1.0,0.0,'2',1.2321743965148926,1.2321743965148926,0.0,31.0
Shape,stimuli/vertical.bmp,stimuli/vertical.bmp,stimuli/horizontal.bmp,stimuli/EmptyFrame.bmp,stimuli/RedFrame.bmp,1,Shape,None,3,1,1.0,143.56027221679688,143.56027221679688,0.0,147.55235290527344,147.55235290527344,0.0,146.5679473876953,146.5679473876953,0.0,1.0,1.0,0.0,'1',0.9868857264518738,0.9868857264518738,0.0,32.0
MatchFaces,stimuli/MatchFaces.bmp,stimuli/EmptyFace.bmp,stimuli/EmptyFace.bmp,stimuli/EmptyFrame.bmp,stimuli/EmptyFrame.bmp,Null,None,None,3,1,1.0,147.70608520507812,147.70608520507812,0.0,151.55740356445312,151.55740356445312,0.0,150.56961059570312,150.56961059570312,0.0,0.0,0.0,0.0,,,,,33.0
Anger,stimuli/20M_AN_O.BMP,stimuli/34M_AN_O.BMP,stimuli/20M_AN_O.BMP,stimuli/EmptyFrame.bmp,stimuli/RedFrame.bmp,2,Anger,Male,3,1,1.0,151.61456298828125,151.61456298828125,0.0,155.57789611816406,155.57789611816406,0.0,154.59571838378906,154.59571838378906,0.0,1.0,1.0,0.0,'2',1.2592720985412598,1.2592720985412598,0.0,34.0
Anger,stimuli/01F_AN_O.bmp,stimuli/19F_AN_O.BMP,stimuli/01F_AN_O.bmp,stimuli/EmptyFrame.bmp,stimuli/RedFrame.bmp,2,Anger,Female,3,1,1.0,155.6098175048828,155.6098175048828,0.0,159.6002960205078,159.6002960205078,0.0,158.61239624023438,158.61239624023438,0.0,1.0,1.0,0.0,'2',1.1055177450180054,1.1055177450180054,0.0,35.0
Anger,stimuli/06F_AN_O.bmp,stimuli/15F_AN_O.BMP,stimuli/06F_AN_O.bmp,stimuli/EmptyFrame.bmp,stimuli/RedFrame.bmp,2,Anger,Female,3,1,1.0,159.63180541992188,159.63180541992188,0.0,163.62200927734375,163.62200927734375,0.0,162.6276397705078,162.6276397705078,0.0,1.0,1.0,0.0,'2',0.9035623073577881,0.9035623073577881,0.0,36.0
Anger,stimuli/42M_AN_O.BMP,stimuli/42M_AN_O.BMP,stimuli/43M_AN_O.BMP,stimuli/EmptyFrame.bmp,stimuli/RedFrame.bmp,1,Anger,Male,3,1,1.0,163.65359497070312,163.65359497070312,0.0,167.63983154296875,167.63983154296875,0.0,166.6556854248047,166.6556854248047,0.0,1.0,1.0,0.0,'1',1.170837640762329,1.170837640762329,0.0,37.0
Anger,stimuli/40M_AN_O.BMP,stimuli/41M_AN_O.BMP,stimuli/40M_AN_O.BMP,stimuli/EmptyFrame.bmp,stimuli/RedFrame.bmp,2,Anger,Male,3,1,1.0,167.66796875,167.66796875,0.0,171.65011596679688,171.65011596679688,0.0,170.6643524169922,170.6643524169922,0.0,1.0,1.0,0.0,'2',0.7181198000907898,0.7181198000907898,0.0,38.0
Anger,stimuli/08F_AN_O.BMP,stimuli/08F_AN_O.BMP,stimuli/13F_AN_O.BMP,stimuli/EmptyFrame.bmp,stimuli/RedFrame.bmp,1,Anger,Female,3,1,1.0,171.6798553466797,171.6798553466797,0.0,175.6684112548828,175.6684112548828,0.0,174.67282104492188,174.67282104492188,0.0,1.0,1.0,0.0,'1',0.8032274842262268,0.8032274842262268,0.0,39.0
Anger,stimuli/09F_AN_O.BMP,stimuli/12F_AN_O.BMP,stimuli/09F_AN_O.BMP,stimuli/EmptyFrame.bmp,stimuli/RedFrame.bmp,2,Anger,Female,3,1,1.0,175.6968231201172,175.6968231201172,0.0,179.68785095214844,179.68785095214844,0.0,178.7010498046875,178.7010498046875,0.0,1.0,1.0,0.0,'2',0.7915512919425964,0.7915512919425964,0.0,40.0
Anger,stimuli/34M_AN_O.BMP,stimuli/35M_AN_O.BMP,stimuli/34M_AN_O.BMP,stimuli/EmptyFrame.bmp,stimuli/RedFrame.bmp,2,Anger,Male,3,1,1.0,179.718017578125,179.718017578125,0.0,183.70567321777344,183.70567321777344,0.0,182.7126007080078,182.7126007080078,0.0,1.0,1.0,0.0,'2',0.8498592972755432,0.8498592972755432,0.0,41.0
Anger,stimuli/24M_AN_O.BMP,stimuli/24M_AN_O.BMP,stimuli/30M_AN_O.BMP,stimuli/EmptyFrame.bmp,stimuli/RedFrame.bmp,1,Anger,Male,3,1,1.0,183.7355499267578,183.7355499267578,0.0,187.7160186767578,187.7160186767578,0.0,186.73536682128906,186.73536682128906,0.0,1.0,1.0,0.0,'1',1.2859699726104736,1.2859699726104736,0.0,42.0
Anger,stimuli/03F_AN_O.bmp,stimuli/03F_AN_O.bmp,stimuli/17F_AN_O.BMP,stimuli/EmptyFrame.bmp,stimuli/RedFrame.bmp,1,Anger,Female,3,1,1.0,187.74195861816406,187.74195861816406,0.0,191.7244110107422,191.7244110107422,0.0,190.75209045410156,190.75209045410156,0.0,1.0,1.0,0.0,'1',0.9034543037414551,0.9034543037414551,0.0,43.0
MatchFaces,stimuli/MatchFaces.bmp,stimuli/EmptyFace.bmp,stimuli/EmptyFace.bmp,stimuli/EmptyFrame.bmp,stimuli/EmptyFrame.bmp,Null,None,None,3,1,1.0,191.91217041015625,191.91217041015625,0.0,195.72938537597656,195.72938537597656,0.0,194.73435974121094,194.73435974121094,0.0,0.0,0.0,0.0,,,,,44.0
Happy,stimuli/06F_HA_O.bmp,stimuli/07F_HA_O.BMP,stimuli/06F_HA_O.bmp,stimuli/EmptyFrame.bmp,stimuli/RedFrame.bmp,2,Happy,Female,3,1,1.0,195.785888671875,195.785888671875,0.0,199.74411010742188,199.74411010742188,0.0,198.75978088378906,198.75978088378906,0.0,1.0,1.0,0.0,'2',1.0654867887496948,1.0654867887496948,0.0,45.0
Happy,stimuli/13F_HA_O.BMP,stimuli/13F_HA_O.BMP,stimuli/12F_HA_O.BMP,stimuli/EmptyFrame.bmp,stimuli/RedFrame.bmp,1,Happy,Female,3,1,1.0,199.76901245117188,199.76901245117188,0.0,203.76226806640625,203.76226806640625,0.0,202.7692108154297,202.7692108154297,0.0,1.0,1.0,0.0,'1',1.0704399347305298,1.0704399347305298,0.0,46.0
Happy,stimuli/41M_HA_O.BMP,stimuli/41M_HA_O.BMP,stimuli/40M_HA_O.BMP,stimuli/EmptyFrame.bmp,stimuli/RedFrame.bmp,1,Happy,Male,3,1,1.0,203.78903198242188,203.78903198242188,0.0,207.79359436035156,207.79359436035156,0.0,206.79881286621094,206.79881286621094,0.0,1.0,1.0,0.0,'1',0.794032096862793,0.794032096862793,0.0,47.0
Happy,stimuli/03F_HA_O.bmp,stimuli/05F_HA_O.bmp,stimuli/03F_HA_O.bmp,stimuli/EmptyFrame.bmp,stimuli/RedFrame.bmp,2,Happy,Female,3,1,1.0,207.8262939453125,207.8262939453125,0.0,211.80503845214844,211.80503845214844,0.0,210.82579040527344,210.82579040527344,0.0,1.0,1.0,0.0,'2',0.9259703159332275,0.9259703159332275,0.0,48.0
Happy,stimuli/24M_HA_O.BMP,stimuli/24M_HA_O.BMP,stimuli/25M_HA_O.BMP,stimuli/EmptyFrame.bmp,stimuli/RedFrame.bmp,1,Happy,Male,3,1,1.0,211.83447265625,211.83447265625,0.0,215.82577514648438,215.82577514648438,0.0,214.8388214111328,214.8388214111328,0.0,1.0,1.0,0.0,'1',1.1299676895141602,1.1299676895141602,0.0,49.0
Happy,stimuli/19F_HA_O.BMP,stimuli/19F_HA_O.BMP,stimuli/18F_HA_O.BMP,stimuli/EmptyFrame.bmp,stimuli/RedFrame.bmp,1,Happy,Female,3,1,1.0,215.85821533203125,215.85821533203125,0.0,219.84381103515625,219.84381103515625,0.0,218.8517608642578,218.8517608642578,0.0,1.0,1.0,0.0,'1',1.2825454473495483,1.2825454473495483,0.0,50.0
Happy,stimuli/01F_HA_O.bmp,stimuli/01F_HA_O.bmp,stimuli/02F_HA_O.bmp,stimuli/EmptyFrame.bmp,stimuli/RedFrame.bmp,1,Happy,Female,3,1,1.0,219.87440490722656,219.87440490722656,0.0,223.8653106689453,223.8653106689453,0.0,222.88148498535156,222.88148498535156,0.0,1.0,1.0,0.0,'1',0.8447085022926331,0.8447085022926331,0.0,51.0
Happy,stimuli/22M_HA_O.BMP,stimuli/23M_HA_O.BMP,stimuli/22M_HA_O.BMP,stimuli/EmptyFrame.bmp,stimuli/RedFrame.bmp,2,Happy,Male,3,1,1.0,223.90065002441406,223.90065002441406,0.0,227.885986328125,227.885986328125,0.0,226.890869140625,226.890869140625,0.0,1.0,1.0,0.0,'2',1.5294557809829712,1.5294557809829712,0.0,52.0
Happy,stimuli/35M_HA_O.BMP,stimuli/34M_HA_O.BMP,stimuli/35M_HA_O.BMP,stimuli/EmptyFrame.bmp,stimuli/RedFrame.bmp,2,Happy,Male,3,1,1.0,227.9125518798828,227.9125518798828,0.0,231.89974975585938,231.89974975585938,0.0,230.91522216796875,230.91522216796875,0.0,1.0,1.0,0.0,'2',1.1002570390701294,1.1002570390701294,0.0,53.0
Happy,stimuli/39M_HA_O.BMP,stimuli/38M_HA_O.BMP,stimuli/39M_HA_O.BMP,stimuli/EmptyFrame.bmp,stimuli/RedFrame.bmp,2,Happy,Male,3,1,1.0,231.92803955078125,231.92803955078125,0.0,235.92047119140625,235.92047119140625,0.0,234.93389892578125,234.93389892578125,0.0,1.0,1.0,0.0,'2',1.1356831789016724,1.1356831789016724,0.0,54.0
Match Shape,stimuli/MatchShapes.bmp,stimuli/EmptyFace.bmp,stimuli/EmptyFace.bmp,stimuli/EmptyFrame.bmp,stimuli/EmptyFrame.bmp,Null,None,None,3,1,1.0,235.94871520996094,235.94871520996094,0.0,239.93101501464844,239.93101501464844,0.0,238.9365692138672,238.9365692138672,0.0,0.0,0.0,0.0,,,,,55.0
Shape,stimuli/horizontal.bmp,stimuli/horizontal.bmp,stimuli/vertical.bmp,stimuli/EmptyFrame.bmp,stimuli/RedFrame.bmp,1,Shape,None,3,1,1.0,239.96273803710938,239.96273803710938,0.0,243.9532012939453,243.9532012939453,0.0,242.96466064453125,242.96466064453125,0.0,1.0,1.0,0.0,'1',1.4524770975112915,1.4524770975112915,0.0,56.0
Shape,stimuli/horizontal.bmp,stimuli/horizontal.bmp,stimuli/circle.bmp,stimuli/EmptyFrame.bmp,stimuli/RedFrame.bmp,1,Shape,None,3,1,1.0,243.976806640625,243.976806640625,0.0,247.964599609375,247.964599609375,0.0,246.9853057861328,246.9853057861328,0.0,1.0,1.0,0.0,'1',0.7916802763938904,0.7916802763938904,0.0,57.0
Shape,stimuli/circle.bmp,stimuli/vertical.bmp,stimuli/circle.bmp,stimuli/EmptyFrame.bmp,stimuli/RedFrame.bmp,2,Shape,None,3,1,1.0,247.99087524414062,247.99087524414062,0.0,251.97860717773438,251.97860717773438,0.0,250.99124145507812,250.99124145507812,0.0,1.0,1.0,0.0,'2',0.9814044237136841,0.9814044237136841,0.0,58.0
Shape,stimuli/vertical.bmp,stimuli/vertical.bmp,stimuli/circle.bmp,stimuli/EmptyFrame.bmp,stimuli/RedFrame.bmp,1,Shape,None,3,1,1.0,252.00437927246094,252.00437927246094,0.0,256.0011901855469,256.0011901855469,0.0,255.01011657714844,255.01011657714844,0.0,1.0,1.0,0.0,'1',0.944450318813324,0.944450318813324,0.0,59.0
Shape,stimuli/horizontal.bmp,stimuli/horizontal.bmp,stimuli/circle.bmp,stimuli/EmptyFrame.bmp,stimuli/RedFrame.bmp,1,Shape,None,3,1,1.0,256.027587890625,256.027587890625,0.0,260.01904296875,260.01904296875,0.0,259.0289306640625,259.0289306640625,0.0,1.0,1.0,0.0,'1',1.260364055633545,1.260364055633545,0.0,60.0
Shape,stimuli/vertical.bmp,stimuli/vertical.bmp,stimuli/circle.bmp,stimuli/EmptyFrame.bmp,stimuli/RedFrame.bmp,1,Shape,None,3,1,1.0,260.0444030761719,260.0444030761719,0.0,264.03948974609375,264.03948974609375,0.0,263.0506286621094,263.0506286621094,0.0,1.0,1.0,0.0,'1',0.7395375967025757,0.7395375967025757,0.0,61.0
Shape,stimuli/horizontal.bmp,stimuli/circle.bmp,stimuli/horizontal.bmp,stimuli/EmptyFrame.bmp,stimuli/RedFrame.bmp,2,Shape,None,3,1,1.0,264.0653381347656,264.0653381347656,0.0,268.0505676269531,268.0505676269531,0.0,267.0710754394531,267.0710754394531,0.0,1.0,1.0,0.0,'2',0.640148401260376,0.640148401260376,0.0,62.0
Shape,stimuli/circle.bmp,stimuli/circle.bmp,stimuli/horizontal.bmp,stimuli/EmptyFrame.bmp,stimuli/RedFrame.bmp,1,Shape,None,3,1,1.0,268.0716857910156,268.0716857910156,0.0,272.0609130859375,272.0609130859375,0.0,271.0769348144531,271.0769348144531,0.0,1.0,1.0,0.0,'1',1.0991960763931274,1.0991960763931274,0.0,63.0
Shape,stimuli/circle.bmp,stimuli/horizontal.bmp,stimuli/circle.bmp,stimuli/EmptyFrame.bmp,stimuli/RedFrame.bmp,2,Shape,None,3,1,1.0,272.08612060546875,272.08612060546875,0.0,276.0727233886719,276.0727233886719,0.0,275.086669921875,275.086669921875,0.0,1.0,1.0,0.0,'2',0.7027060985565186,0.7027060985565186,0.0,64.0
Shape,stimuli/vertical.bmp,stimuli/vertical.bmp,stimuli/horizontal.bmp,stimuli/EmptyFrame.bmp,stimuli/RedFrame.bmp,1,Shape,None,3,1,1.0,276.09246826171875,276.09246826171875,0.0,280.09051513671875,280.09051513671875,0.0,279.0985107421875,279.0985107421875,0.0,1.0,1.0,0.0,'1',1.3064846992492676,1.3064846992492676,0.0,65.0
MatchFaces,stimuli/MatchFaces.bmp,stimuli/EmptyFace.bmp,stimuli/EmptyFace.bmp,stimuli/EmptyFrame.bmp,stimuli/EmptyFrame.bmp,Null,None,None,3,1,1.0,280.2629089355469,280.2629089355469,0.0,284.0982666015625,284.0982666015625,0.0,283.1018371582031,283.1018371582031,0.0,0.0,0.0,0.0,,,,,66.0
Neutral,stimuli/20M_NE_C.BMP,stimuli/21M_NE_C.BMP,stimuli/20M_NE_C.BMP,stimuli/EmptyFrame.bmp,stimuli/RedFrame.bmp,2,Neutral,Male,3,1,1.0,284.1749267578125,284.1749267578125,0.0,288.1159362792969,288.1159362792969,0.0,287.1394958496094,287.1394958496094,0.0,1.0,1.0,0.0,'2',1.42061185836792,1.42061185836792,0.0,67.0
Neutral,stimuli/01F_NE_C.bmp,stimuli/01F_NE_C.bmp,stimuli/02F_NE_C.bmp,stimuli/EmptyFrame.bmp,stimuli/RedFrame.bmp,1,Neutral,Female,3,1,1.0,288.151123046875,288.151123046875,0.0,292.1357116699219,292.1357116699219,0.0,291.1625061035156,291.1625061035156,0.0,1.0,1.0,0.0,'1',1.4475953578948975,1.4475953578948975,0.0,68.0
Neutral,stimuli/22M_NE_C.BMP,stimuli/23M_NE_C.BMP,stimuli/22M_NE_C.BMP,stimuli/EmptyFrame.bmp,stimuli/RedFrame.bmp,2,Neutral,Male,3,1,1.0,292.16705322265625,292.16705322265625,0.0,296.1478271484375,296.1478271484375,0.0,295.1572570800781,295.1572570800781,0.0,1.0,1.0,0.0,'2',1.317503809928894,1.317503809928894,0.0,69.0
Neutral,stimuli/24M_NE_C.BMP,stimuli/24M_NE_C.BMP,stimuli/25M_NE_C.BMP,stimuli/EmptyFrame.bmp,stimuli/RedFrame.bmp,1,Neutral,Male,3,1,1.0,296.1719970703125,296.1719970703125,0.0,300.1580505371094,300.1580505371094,0.0,299.1855773925781,299.1855773925781,0.0,1.0,1.0,0.0,'1',0.874947726726532,0.874947726726532,0.0,70.0
Neutral,stimuli/03F_NE_C.bmp,stimuli/05F_NE_C.bmp,stimuli/03F_NE_C.bmp,stimuli/EmptyFrame.bmp,stimuli/RedFrame.bmp,2,Neutral,Female,3,1,1.0,300.1886901855469,300.1886901855469,0.0,304.1695556640625,304.1695556640625,0.0,303.18597412109375,303.18597412109375,0.0,1.0,1.0,0.0,'2',1.3798080682754517,1.3798080682754517,0.0,71.0
Neutral,stimuli/26M_NE_C.BMP,stimuli/26M_NE_C.BMP,stimuli/27M_NE_C.BMP,stimuli/EmptyFrame.bmp,stimuli/RedFrame.bmp,1,Neutral,Male,3,1,1.0,304.1929016113281,304.1929016113281,0.0,308.18603515625,308.18603515625,0.0,307.20263671875,307.20263671875,0.0,1.0,1.0,0.0,'1',1.0065383911132812,1.0065383911132812,0.0,72.0
Neutral,stimuli/06F_NE_C.bmp,stimuli/07F_NE_C.BMP,stimuli/06F_NE_C.bmp,stimuli/EmptyFrame.bmp,stimuli/RedFrame.bmp,2,Neutral,Female,3,1,1.0,308.2154846191406,308.2154846191406,0.0,312.1972961425781,312.1972961425781,0.0,311.2109375,311.2109375,0.0,1.0,1.0,0.0,'2',1.6192909479141235,1.6192909479141235,0.0,73.0
Neutral,stimuli/08F_NE_C.BMP,stimuli/08F_NE_C.BMP,stimuli/09F_NE_C.BMP,stimuli/EmptyFrame.bmp,stimuli/RedFrame.bmp,1,Neutral,Female,3,1,1.0,312.2189025878906,312.2189025878906,0.0,316.2139587402344,316.2139587402344,0.0,315.2273864746094,315.2273864746094,0.0,1.0,1.0,0.0,'1',0.8693621158599854,0.8693621158599854,0.0,74.0
Neutral,stimuli/28M_NE_C.BMP,stimuli/29M_NE_C.BMP,stimuli/28M_NE_C.BMP,stimuli/EmptyFrame.bmp,stimuli/RedFrame.bmp,2,Neutral,Male,3,1,1.0,316.2388610839844,316.2388610839844,0.0,320.23236083984375,320.23236083984375,0.0,319.2502136230469,319.2502136230469,0.0,1.0,1.0,0.0,'2',0.8655018210411072,0.8655018210411072,0.0,75.0
Neutral,stimuli/10F_NE_C.BMP,stimuli/10F_NE_C.BMP,stimuli/06F_NE_C.bmp,stimuli/EmptyFrame.bmp,stimuli/RedFrame.bmp,1,Neutral,Female,3,1,1.0,320.2586364746094,320.2586364746094,0.0,324.2506408691406,324.2506408691406,0.0,323.2616882324219,323.2616882324219,0.0,1.0,1.0,0.0,'1',0.807112991809845,0.807112991809845,0.0,76.0
MatchFaces,stimuli/MatchFaces.bmp,stimuli/EmptyFace.bmp,stimuli/EmptyFace.bmp,stimuli/EmptyFrame.bmp,stimuli/EmptyFrame.bmp,Null,None,None,3,1,1.0,324.44873046875,324.44873046875,0.0,328.2516174316406,328.2516174316406,0.0,327.2618713378906,327.2618713378906,0.0,0.0,0.0,0.0,,,,,77.0
Happy,stimuli/28M_HA_O.BMP,stimuli/29M_HA_O.BMP,stimuli/28M_HA_O.BMP,stimuli/EmptyFrame.bmp,stimuli/RedFrame.bmp,2,Happy,Male,3,1,1.0,328.3060607910156,328.3060607910156,0.0,332.2629699707031,332.2629699707031,0.0,331.28656005859375,331.28656005859375,0.0,1.0,1.0,0.0,'2',0.829893171787262,0.829893171787262,0.0,78.0
Happy,stimuli/10F_HA_O.BMP,stimuli/10F_HA_O.BMP,stimuli/06F_HA_O.bmp,stimuli/EmptyFrame.bmp,stimuli/RedFrame.bmp,1,Happy,Female,3,1,1.0,332.2896728515625,332.2896728515625,0.0,336.2795104980469,336.2795104980469,0.0,335.3042297363281,335.3042297363281,0.0,1.0,1.0,0.0,'1',0.7316992878913879,0.7316992878913879,0.0,79.0
Happy,stimuli/26M_HA_O.BMP,stimuli/26M_HA_O.BMP,stimuli/27M_HA_O.BMP,stimuli/EmptyFrame.bmp,stimuli/RedFrame.bmp,1,Happy,Male,3,1,1.0,336.30499267578125,336.30499267578125,0.0,340.29156494140625,340.29156494140625,0.0,339.3120422363281,339.3120422363281,0.0,1.0,1.0,0.0,'1',1.399616003036499,1.399616003036499,0.0,80.0
Happy,stimuli/20M_HA_O.BMP,stimuli/21M_HA_O.BMP,stimuli/20M_HA_O.BMP,stimuli/EmptyFrame.bmp,stimuli/RedFrame.bmp,2,Happy,Male,3,1,1.0,340.31787109375,340.31787109375,0.0,344.3117370605469,344.3117370605469,0.0,343.3204345703125,343.3204345703125,0.0,1.0,1.0,0.0,'2',1.4352284669876099,1.4352284669876099,0.0,81.0
Happy,stimuli/37M_HA_O.BMP,stimuli/37M_HA_O.BMP,stimuli/36M_HA_O.BMP,stimuli/EmptyFrame.bmp,stimuli/RedFrame.bmp,1,Happy,Male,3,1,1.0,344.3404846191406,344.3404846191406,0.0,348.3265075683594,348.3265075683594,0.0,347.3382568359375,347.3382568359375,0.0,1.0,1.0,0.0,'1',0.8974711894989014,0.8974711894989014,0.0,82.0
Happy,stimuli/43M_HA_O.BMP,stimuli/42M_HA_O.BMP,stimuli/43M_HA_O.BMP,stimuli/EmptyFrame.bmp,stimuli/RedFrame.bmp,2,Happy,Male,3,1,1.0,348.35516357421875,348.35516357421875,0.0,352.3434753417969,352.3434753417969,0.0,351.3541259765625,351.3541259765625,0.0,1.0,1.0,0.0,'2',1.0341002941131592,1.0341002941131592,0.0,83.0
Happy,stimuli/11F_HA_O.BMP,stimuli/10F_HA_O.BMP,stimuli/11F_HA_O.BMP,stimuli/EmptyFrame.bmp,stimuli/RedFrame.bmp,2,Happy,Female,3,1,1.0,352.3679504394531,352.3679504394531,0.0,356.3577880859375,356.3577880859375,0.0,355.3741455078125,355.3741455078125,0.0,1.0,1.0,0.0,'2',0.698556125164032,0.698556125164032,0.0,84.0
Happy,stimuli/17F_HA_O.BMP,stimuli/16F_HA_O.BMP,stimuli/17F_HA_O.BMP,stimuli/EmptyFrame.bmp,stimuli/RedFrame.bmp,2,Happy,Female,3,1,1.0,356.38348388671875,356.38348388671875,0.0,360.3754577636719,360.3754577636719,0.0,359.3797302246094,359.3797302246094,0.0,1.0,1.0,0.0,'2',0.8959370255470276,0.8959370255470276,0.0,85.0
Happy,stimuli/15F_HA_O.BMP,stimuli/15F_HA_O.BMP,stimuli/14F_HA_O.BMP,stimuli/EmptyFrame.bmp,stimuli/RedFrame.bmp,1,Happy,Female,3,1,1.0,360.40020751953125,360.40020751953125,0.0,364.38653564453125,364.38653564453125,0.0,363.4011535644531,363.4011535644531,0.0,1.0,1.0,0.0,'1',0.8973832726478577,0.8973832726478577,0.0,86.0
Happy,stimuli/08F_HA_O.BMP,stimuli/08F_HA_O.BMP,stimuli/09F_HA_O.BMP,stimuli/EmptyFrame.bmp,stimuli/RedFrame.bmp,1,Happy,Female,3,1,1.0,364.4143981933594,364.4143981933594,0.0,368.4091491699219,368.4091491699219,0.0,367.4175109863281,367.4175109863281,0.0,1.0,1.0,0.0,'1',2.966374635696411,2.966374635696411,0.0,87.0
MatchFaces,stimuli/MatchFaces.bmp,stimuli/EmptyFace.bmp,stimuli/EmptyFace.bmp,stimuli/EmptyFrame.bmp,stimuli/EmptyFrame.bmp,Null,None,None,3,1,1.0,368.6191101074219,368.6191101074219,0.0,372.4162902832031,372.4162902832031,0.0,371.41558837890625,371.41558837890625,0.0,0.0,0.0,0.0,,,,,88.0
Fear,stimuli/34M_FE_O.BMP,stimuli/34M_FE_O.BMP,stimuli/33M_FE_O.BMP,stimuli/EmptyFrame.bmp,stimuli/RedFrame.bmp,1,Fear,Male,3,1,1.0,372.4687805175781,372.4687805175781,0.0,376.44122314453125,376.44122314453125,0.0,375.4541015625,375.4541015625,0.0,1.0,1.0,0.0,'1',1.0149755477905273,1.0149755477905273,0.0,89.0
Fear,stimuli/28M_FE_O.BMP,stimuli/28M_FE_O.BMP,stimuli/25M_FE_O.BMP,stimuli/EmptyFrame.bmp,stimuli/RedFrame.bmp,1,Fear,Male,3,1,1.0,376.47210693359375,376.47210693359375,0.0,380.4606628417969,380.4606628417969,0.0,379.47003173828125,379.47003173828125,0.0,1.0,1.0,0.0,'1',0.8303586840629578,0.8303586840629578,0.0,90.0
Fear,stimuli/11F_FE_O.BMP,stimuli/10F_FE_O.BMP,stimuli/11F_FE_O.BMP,stimuli/EmptyFrame.bmp,stimuli/RedFrame.bmp,2,Fear,Female,3,1,1.0,380.48175048828125,380.48175048828125,0.0,384.4755554199219,384.4755554199219,0.0,383.4918212890625,383.4918212890625,0.0,1.0,1.0,0.0,'2',0.6865460872650146,0.6865460872650146,0.0,91.0
Fear,stimuli/27M_FE_O.BMP,stimuli/26M_FE_O.BMP,stimuli/27M_FE_O.BMP,stimuli/EmptyFrame.bmp,stimuli/RedFrame.bmp,2,Fear,Male,3,1,1.0,384.5028991699219,384.5028991699219,0.0,388.489013671875,388.489013671875,0.0,387.51068115234375,387.51068115234375,0.0,1.0,1.0,0.0,'2',0.7655503153800964,0.7655503153800964,0.0,92.0
Fear,stimuli/11F_FE_O.BMP,stimuli/12F_FE_O.BMP,stimuli/11F_FE_O.BMP,stimuli/EmptyFrame.bmp,stimuli/RedFrame.bmp,2,Fear,Female,3,1,1.0,388.5175476074219,388.5175476074219,0.0,392.5095520019531,392.5095520019531,0.0,391.5184631347656,391.5184631347656,0.0,1.0,1.0,0.0,'2',0.6675263047218323,0.6675263047218323,0.0,93.0
Fear,stimuli/31M_FE_O.BMP,stimuli/31M_FE_O.BMP,stimuli/38M_FE_O.BMP,stimuli/EmptyFrame.bmp,stimuli/RedFrame.bmp,1,Fear,Male,3,1,1.0,392.5392150878906,392.5392150878906,0.0,396.5221252441406,396.5221252441406,0.0,395.5476989746094,395.5476989746094,0.0,1.0,1.0,0.0,'1',0.9661272168159485,0.9661272168159485,0.0,94.0
Fear,stimuli/29M_FE_O.BMP,stimuli/29M_FE_O.BMP,stimuli/24M_FE_O.BMP,stimuli/EmptyFrame.bmp,stimuli/RedFrame.bmp,1,Fear,Male,3,1,1.0,396.54766845703125,396.54766845703125,0.0,400.54156494140625,400.54156494140625,0.0,399.548095703125,399.548095703125,0.0,1.0,1.0,0.0,'1',0.7641946077346802,0.7641946077346802,0.0,95.0
Fear,stimuli/25M_FE_O.BMP,stimuli/29M_FE_O.BMP,stimuli/25M_FE_O.BMP,stimuli/EmptyFrame.bmp,stimuli/RedFrame.bmp,2,Fear,Male,3,1,1.0,400.5665588378906,400.5665588378906,0.0,404.5570983886719,404.5570983886719,0.0,403.5662841796875,403.5662841796875,0.0,1.0,1.0,0.0,'2',0.7217121720314026,0.7217121720314026,0.0,96.0
Fear,stimuli/15F_FE_O.BMP,stimuli/18F_FE_O.BMP,stimuli/15F_FE_O.BMP,stimuli/EmptyFrame.bmp,stimuli/RedFrame.bmp,2,Fear,Female,3,1,1.0,404.5852355957031,404.5852355957031,0.0,408.5706481933594,408.5706481933594,0.0,407.5909729003906,407.5909729003906,0.0,1.0,1.0,0.0,'2',0.9892876744270325,0.9892876744270325,0.0,97.0
Fear,stimuli/09F_FE_O.BMP,stimuli/09F_FE_O.BMP,stimuli/12F_FE_O.BMP,stimuli/EmptyFrame.bmp,stimuli/RedFrame.bmp,1,Fear,Female,3,1,1.0,408.59490966796875,408.59490966796875,0.0,412.58709716796875,412.58709716796875,0.0,411.5931091308594,411.5931091308594,0.0,1.0,1.0,0.0,'1',0.7588793039321899,0.7588793039321899,0.0,98.0
MatchFaces,stimuli/MatchFaces.bmp,stimuli/EmptyFace.bmp,stimuli/EmptyFace.bmp,stimuli/EmptyFrame.bmp,stimuli/EmptyFrame.bmp,Null,None,None,3,1,1.0,412.740234375,412.740234375,0.0,416.5884704589844,416.5884704589844,0.0,415.5939025878906,415.5939025878906,0.0,0.0,0.0,0.0,,,,,99.0
Anger,stimuli/23M_AN_O.BMP,stimuli/23M_AN_O.BMP,stimuli/31M_AN_O.BMP,stimuli/EmptyFrame.bmp,stimuli/RedFrame.bmp,1,Anger,Male,3,1,1.0,416.6394958496094,416.6394958496094,0.0,420.609375,420.609375,0.0,419.6122741699219,419.6122741699219,0.0,1.0,1.0,0.0,'1',1.361485242843628,1.361485242843628,0.0,100.0
Anger,stimuli/36M_AN_O.BMP,stimuli/37M_AN_O.BMP,stimuli/36M_AN_O.BMP,stimuli/EmptyFrame.bmp,stimuli/RedFrame.bmp,2,Anger,Male,3,1,1.0,420.6344909667969,420.6344909667969,0.0,424.6358337402344,424.6358337402344,0.0,423.635986328125,423.635986328125,0.0,1.0,1.0,0.0,'2',0.9018564224243164,0.9018564224243164,0.0,101.0
Anger,stimuli/38M_AN_O.BMP,stimuli/39M_AN_O.BMP,stimuli/38M_AN_O.BMP,stimuli/EmptyFrame.bmp,stimuli/RedFrame.bmp,2,Anger,Male,3,1,1.0,424.6661682128906,424.6661682128906,0.0,428.64892578125,428.64892578125,0.0,427.66680908203125,427.66680908203125,0.0,1.0,1.0,0.0,'2',0.5661112070083618,0.5661112070083618,0.0,102.0
Anger,stimuli/02f_an_o.bmp,stimuli/18F_AN_O.BMP,stimuli/02f_an_o.bmp,stimuli/EmptyFrame.bmp,stimuli/RedFrame.bmp,2,Anger,Female,3,1,1.0,428.68243408203125,428.68243408203125,0.0,432.66693115234375,432.66693115234375,0.0,431.6805419921875,431.6805419921875,0.0,1.0,1.0,0.0,'2',0.6209341287612915,0.6209341287612915,0.0,103.0
Anger,stimuli/22M_AN_O.BMP,stimuli/32M_AN_O.BMP,stimuli/22M_AN_O.BMP,stimuli/EmptyFrame.bmp,stimuli/RedFrame.bmp,2,Anger,Male,3,1,1.0,432.6961975097656,432.6961975097656,0.0,436.6847839355469,436.6847839355469,0.0,435.6969299316406,435.6969299316406,0.0,1.0,1.0,0.0,'2',0.8187081813812256,0.8187081813812256,0.0,104.0
Anger,stimuli/12F_AN_O.BMP,stimuli/12F_AN_O.BMP,stimuli/13F_AN_O.BMP,stimuli/EmptyFrame.bmp,stimuli/RedFrame.bmp,1,Anger,Female,3,1,1.0,436.71044921875,436.71044921875,0.0,440.69451904296875,440.69451904296875,0.0,439.7178039550781,439.7178039550781,0.0,1.0,1.0,0.0,'1',0.7536466121673584,0.7536466121673584,0.0,105.0
Anger,stimuli/05F_AN_O.bmp,stimuli/05F_AN_O.bmp,stimuli/16F_AN_O.BMP,stimuli/EmptyFrame.bmp,stimuli/RedFrame.bmp,1,Anger,Female,3,1,1.0,440.7271728515625,440.7271728515625,0.0,444.7164001464844,444.7164001464844,0.0,443.7247314453125,443.7247314453125,0.0,1.0,1.0,0.0,'1',0.8140882849693298,0.8140882849693298,0.0,106.0
Anger,stimuli/21M_AN_O.BMP,stimuli/21M_AN_O.BMP,stimuli/33M_AN_O.BMP,stimuli/EmptyFrame.bmp,stimuli/RedFrame.bmp,1,Anger,Male,3,1,1.0,444.7488098144531,444.7488098144531,0.0,448.7270202636719,448.7270202636719,0.0,447.74920654296875,447.74920654296875,0.0,1.0,1.0,0.0,'1',0.8130723834037781,0.8130723834037781,0.0,107.0
Anger,stimuli/07F_AN_O.BMP,stimuli/07F_AN_O.BMP,stimuli/14F_AN_O.BMP,stimuli/EmptyFrame.bmp,stimuli/RedFrame.bmp,1,Anger,Female,3,1,1.0,448.7550354003906,448.7550354003906,0.0,452.7449035644531,452.7449035644531,0.0,451.754150390625,451.754150390625,0.0,1.0,1.0,0.0,'1',1.1755882501602173,1.1755882501602173,0.0,108.0
Anger,stimuli/10F_AN_O.BMP,stimuli/10F_AN_O.BMP,stimuli/11F_AN_O.BMP,stimuli/EmptyFrame.bmp,stimuli/RedFrame.bmp,1,Anger,Female,3,1,1.0,452.775634765625,452.775634765625,0.0,456.76483154296875,456.76483154296875,0.0,455.7725524902344,455.7725524902344,0.0,1.0,1.0,0.0,'1',0.991477906703949,0.991477906703949,0.0,109.0

extraInfo
participant,sub026
session,001
date,2025_Aug_07_0917
expName,HaririTask_Ver2
psychopyVersion,3.0.1
frameRate,None
