TrialType,Top,Left,Right,EmptyFrame,SelectedFrame,Correct,Emotion,Gender,TrialLength,FixationLength,trials.thisRepN,trials.thisTrialN,trials.thisN,trials.thisIndex,key_resp_starttask.keys,key_resp_starttask.rt,GCBeginningFixationStartTime,GCBeginningFixationEndTime,key_resp_trial.keys,key_resp_trial.corr,GCFaceStartTime,GCPostFaceFixationStartTime,GCPostFaceFixationEndTime,key_resp_trial.rt,GCEndingFixationStartTime,GCEndingFixationEndTime,participant,session,date,expName,psychopyVersion,frameRate,
,,,,,,,,,,,,,,,5,13.909339899895713,,,,,,,,,,,sub024,001,2025_Jul_08_0752,HaririTask_Ver1,3.0.1,None,
MatchFaces,stimuli/MatchFaces.bmp,stimuli/EmptyFace.bmp,stimuli/EmptyFace.bmp,stimuli/EmptyFrame.bmp,stimuli/EmptyFrame.bmp,Null,None,None,3,1,0,0,0,0,,,1.500127837061882e-06,15.011547300033271,None,0,15.312129900092259,18.073045999975875,19.052967500174418,,,,sub024,001,2025_Jul_08_0752,HaririTask_Ver1,3.0.1,None,
Anger,stimuli/01F_AN_O.bmp,stimuli/19F_AN_O.BMP,stimuli/01F_AN_O.bmp,stimuli/EmptyFrame.bmp,stimuli/RedFrame.bmp,2,Anger,Female,3,1,0,1,1,1,,,,,2,1,19.30584320006892,22.07611669995822,23.06436110008508,1.1829476999118924,,,sub024,001,2025_Jul_08_0752,HaririTask_Ver1,3.0.1,None,
Anger,stimuli/02f_an_o.bmp,stimuli/18F_AN_O.BMP,stimuli/02f_an_o.bmp,stimuli/EmptyFrame.bmp,stimuli/RedFrame.bmp,2,Anger,Female,3,1,0,2,2,2,,,,,2,1,23.09643410006538,26.100640299962834,27.084314400097355,1.1209232998080552,,,sub024,001,2025_Jul_08_0752,HaririTask_Ver1,3.0.1,None,
Anger,stimuli/20M_AN_O.BMP,stimuli/34M_AN_O.BMP,stimuli/20M_AN_O.BMP,stimuli/EmptyFrame.bmp,stimuli/RedFrame.bmp,2,Anger,Male,3,1,0,3,3,3,,,,,2,1,27.113742700079456,30.109629800077528,31.100348999956623,0.7892372000496835,,,sub024,001,2025_Jul_08_0752,HaririTask_Ver1,3.0.1,None,
Anger,stimuli/03F_AN_O.bmp,stimuli/03F_AN_O.bmp,stimuli/17F_AN_O.BMP,stimuli/EmptyFrame.bmp,stimuli/RedFrame.bmp,1,Anger,Female,3,1,0,4,4,4,,,,,1,1,31.127868100069463,34.125874400138855,35.11929589998908,0.9178015000652522,,,sub024,001,2025_Jul_08_0752,HaririTask_Ver1,3.0.1,None,
Anger,stimuli/21M_AN_O.BMP,stimuli/21M_AN_O.BMP,stimuli/33M_AN_O.BMP,stimuli/EmptyFrame.bmp,stimuli/RedFrame.bmp,1,Anger,Male,3,1,0,5,5,5,,,,,1,1,35.177501199999824,38.15377640002407,39.140387600054964,0.7153157000429928,,,sub024,001,2025_Jul_08_0752,HaririTask_Ver1,3.0.1,None,
Anger,stimuli/22M_AN_O.BMP,stimuli/32M_AN_O.BMP,stimuli/22M_AN_O.BMP,stimuli/EmptyFrame.bmp,stimuli/RedFrame.bmp,2,Anger,Male,3,1,0,6,6,6,,,,,2,1,39.16913880011998,42.168525099987164,43.16038849996403,0.7479430998209864,,,sub024,001,2025_Jul_08_0752,HaririTask_Ver1,3.0.1,None,
Anger,stimuli/23M_AN_O.BMP,stimuli/23M_AN_O.BMP,stimuli/31M_AN_O.BMP,stimuli/EmptyFrame.bmp,stimuli/RedFrame.bmp,1,Anger,Male,3,1,0,7,7,7,,,,,1,1,43.19835890014656,46.18537610000931,47.17010079999454,0.7551090999040753,,,sub024,001,2025_Jul_08_0752,HaririTask_Ver1,3.0.1,None,
Anger,stimuli/05F_AN_O.bmp,stimuli/05F_AN_O.bmp,stimuli/16F_AN_O.BMP,stimuli/EmptyFrame.bmp,stimuli/RedFrame.bmp,1,Anger,Female,3,1,0,8,8,8,,,,,1,1,47.20435360004194,50.20939900004305,51.18820490012877,0.7530853000935167,,,sub024,001,2025_Jul_08_0752,HaririTask_Ver1,3.0.1,None,
Anger,stimuli/06F_AN_O.bmp,stimuli/15F_AN_O.BMP,stimuli/06F_AN_O.bmp,stimuli/EmptyFrame.bmp,stimuli/RedFrame.bmp,2,Anger,Female,3,1,0,9,9,9,,,,,2,1,51.22602519998327,54.21175929997116,55.20472449995577,0.760254800086841,,,sub024,001,2025_Jul_08_0752,HaririTask_Ver1,3.0.1,None,
Anger,stimuli/24M_AN_O.BMP,stimuli/24M_AN_O.BMP,stimuli/30M_AN_O.BMP,stimuli/EmptyFrame.bmp,stimuli/RedFrame.bmp,1,Anger,Male,3,1,0,10,10,10,,,,,1,1,55.24546750006266,58.2376184000168,59.222354100085795,0.7175990999676287,,,sub024,001,2025_Jul_08_0752,HaririTask_Ver1,3.0.1,None,
MatchShape,stimuli/MatchShapes.bmp,stimuli/EmptyFace.bmp,stimuli/EmptyFace.bmp,stimuli/EmptyFrame.bmp,stimuli/EmptyFrame.bmp,Null,None,None,3,1,0,11,11,11,,,,,None,0,59.259344100020826,62.23547170008533,63.224744100123644,,,,sub024,001,2025_Jul_08_0752,HaririTask_Ver1,3.0.1,None,
Shape,stimuli/horizontal.bmp,stimuli/horizontal.bmp,stimuli/circle.bmp,stimuli/EmptyFrame.bmp,stimuli/RedFrame.bmp,1,Shape,None,3,1,0,12,12,12,,,,,1,1,63.267596000107005,66.25879590003751,67.24215300008655,1.4668383998796344,,,sub024,001,2025_Jul_08_0752,HaririTask_Ver1,3.0.1,None,
Shape,stimuli/vertical.bmp,stimuli/horizontal.bmp,stimuli/vertical.bmp,stimuli/EmptyFrame.bmp,stimuli/RedFrame.bmp,2,Shape,None,3,1,0,13,13,13,,,,,2,1,67.2656505999621,70.27013740013354,71.25420540012419,0.7157139000482857,,,sub024,001,2025_Jul_08_0752,HaririTask_Ver1,3.0.1,None,
Shape,stimuli/horizontal.bmp,stimuli/horizontal.bmp,stimuli/vertical.bmp,stimuli/EmptyFrame.bmp,stimuli/RedFrame.bmp,1,Shape,None,3,1,0,14,14,14,,,,,1,1,71.2804525999818,74.28826870000921,75.27021360001527,0.6821541998069733,,,sub024,001,2025_Jul_08_0752,HaririTask_Ver1,3.0.1,None,
Shape,stimuli/horizontal.bmp,stimuli/circle.bmp,stimuli/horizontal.bmp,stimuli/EmptyFrame.bmp,stimuli/RedFrame.bmp,2,Shape,None,3,1,0,15,15,15,,,,,2,1,75.29375590011477,78.2939118000213,79.28369030007161,0.6610638999845833,,,sub024,001,2025_Jul_08_0752,HaririTask_Ver1,3.0.1,None,
Shape,stimuli/circle.bmp,stimuli/circle.bmp,stimuli/vertical.bmp,stimuli/EmptyFrame.bmp,stimuli/RedFrame.bmp,1,Shape,None,3,1,0,16,16,16,,,,,1,1,79.3086052001454,82.31820810004137,83.29715710016899,0.8706205999478698,,,sub024,001,2025_Jul_08_0752,HaririTask_Ver1,3.0.1,None,
Shape,stimuli/circle.bmp,stimuli/circle.bmp,stimuli/horizontal.bmp,stimuli/EmptyFrame.bmp,stimuli/RedFrame.bmp,1,Shape,None,3,1,0,17,17,17,,,,,1,1,83.32282770005986,86.32495360006578,87.31836979999207,0.7061058999970555,,,sub024,001,2025_Jul_08_0752,HaririTask_Ver1,3.0.1,None,
Shape,stimuli/vertical.bmp,stimuli/circle.bmp,stimuli/vertical.bmp,stimuli/EmptyFrame.bmp,stimuli/RedFrame.bmp,2,Shape,None,3,1,0,18,18,18,,,,,2,1,87.34320580004714,90.34833499998786,91.33807000005618,0.5506944998633116,,,sub024,001,2025_Jul_08_0752,HaririTask_Ver1,3.0.1,None,
Shape,stimuli/circle.bmp,stimuli/vertical.bmp,stimuli/circle.bmp,stimuli/EmptyFrame.bmp,stimuli/RedFrame.bmp,2,Shape,None,3,1,0,19,19,19,,,,,2,1,91.36129559995607,94.37222430016845,95.35684250015765,0.6082613999024034,,,sub024,001,2025_Jul_08_0752,HaririTask_Ver1,3.0.1,None,
Shape,stimuli/vertical.bmp,stimuli/horizontal.bmp,stimuli/vertical.bmp,stimuli/EmptyFrame.bmp,stimuli/RedFrame.bmp,2,Shape,None,3,1,0,20,20,20,,,,,2,1,95.38539570011199,98.38822860014625,99.37116100010462,0.8305886001326144,,,sub024,001,2025_Jul_08_0752,HaririTask_Ver1,3.0.1,None,
Shape,stimuli/vertical.bmp,stimuli/vertical.bmp,stimuli/circle.bmp,stimuli/EmptyFrame.bmp,stimuli/RedFrame.bmp,1,Shape,None,3,1,0,21,21,21,,,,,1,1,99.39899810007773,102.3977950999979,103.40221510012634,0.6831081998534501,,,sub024,001,2025_Jul_08_0752,HaririTask_Ver1,3.0.1,None,
MatchFaces,stimuli/MatchFaces.bmp,stimuli/EmptyFace.bmp,stimuli/EmptyFace.bmp,stimuli/EmptyFrame.bmp,stimuli/EmptyFrame.bmp,Null,None,None,3,1,0,22,22,22,,,,,None,0,103.54256790014915,106.4191424001474,107.40810620016418,,,,sub024,001,2025_Jul_08_0752,HaririTask_Ver1,3.0.1,None,
Neutral,stimuli/20M_NE_C.BMP,stimuli/21M_NE_C.BMP,stimuli/20M_NE_C.BMP,stimuli/EmptyFrame.bmp,stimuli/RedFrame.bmp,2,Neutral,Male,3,1,0,23,23,23,,,,,2,1,107.46075169998221,110.44212620006874,111.42578350007534,1.10733210016042,,,sub024,001,2025_Jul_08_0752,HaririTask_Ver1,3.0.1,None,
Neutral,stimuli/01F_NE_C.bmp,stimuli/01F_NE_C.bmp,stimuli/02F_NE_C.bmp,stimuli/EmptyFrame.bmp,stimuli/RedFrame.bmp,1,Neutral,Female,3,1,0,24,24,24,,,,,1,1,111.45554680004716,114.45856670010835,115.43932500015944,0.7607168999966234,,,sub024,001,2025_Jul_08_0752,HaririTask_Ver1,3.0.1,None,
Neutral,stimuli/22M_NE_C.BMP,stimuli/23M_NE_C.BMP,stimuli/22M_NE_C.BMP,stimuli/EmptyFrame.bmp,stimuli/RedFrame.bmp,2,Neutral,Male,3,1,0,25,25,25,,,,,2,1,115.50017480016686,118.4692455001641,119.46752370009199,0.73254289990291,,,sub024,001,2025_Jul_08_0752,HaririTask_Ver1,3.0.1,None,
Neutral,stimuli/24M_NE_C.BMP,stimuli/24M_NE_C.BMP,stimuli/25M_NE_C.BMP,stimuli/EmptyFrame.bmp,stimuli/RedFrame.bmp,1,Neutral,Male,3,1,0,26,26,26,,,,,1,1,119.50331830000505,122.50399040011689,123.47892810008489,0.7094833001028746,,,sub024,001,2025_Jul_08_0752,HaririTask_Ver1,3.0.1,None,
Neutral,stimuli/03F_NE_C.bmp,stimuli/05F_NE_C.bmp,stimuli/03F_NE_C.bmp,stimuli/EmptyFrame.bmp,stimuli/RedFrame.bmp,2,Neutral,Female,3,1,0,27,27,27,,,,,2,1,123.5129524001386,126.51361989998259,127.49297600006685,0.5356103999074548,,,sub024,001,2025_Jul_08_0752,HaririTask_Ver1,3.0.1,None,
Neutral,stimuli/26M_NE_C.BMP,stimuli/26M_NE_C.BMP,stimuli/27M_NE_C.BMP,stimuli/EmptyFrame.bmp,stimuli/RedFrame.bmp,1,Neutral,Male,3,1,0,28,28,28,,,,,1,1,127.5337364000734,130.5203478001058,131.5094948001206,0.6361237999517471,,,sub024,001,2025_Jul_08_0752,HaririTask_Ver1,3.0.1,None,
Neutral,stimuli/06F_NE_C.bmp,stimuli/07F_NE_C.BMP,stimuli/06F_NE_C.bmp,stimuli/EmptyFrame.bmp,stimuli/RedFrame.bmp,2,Neutral,Female,3,1,0,29,29,29,,,,,2,1,131.5442624001298,134.5433802001644,135.5236925999634,0.7829712999518961,,,sub024,001,2025_Jul_08_0752,HaririTask_Ver1,3.0.1,None,
Neutral,stimuli/08F_NE_C.BMP,stimuli/08F_NE_C.BMP,stimuli/09F_NE_C.BMP,stimuli/EmptyFrame.bmp,stimuli/RedFrame.bmp,1,Neutral,Female,3,1,0,30,30,30,,,,,1,1,135.55815390008502,138.56151280016638,139.5468906001188,0.8226005001924932,,,sub024,001,2025_Jul_08_0752,HaririTask_Ver1,3.0.1,None,
Neutral,stimuli/28M_NE_C.BMP,stimuli/29M_NE_C.BMP,stimuli/28M_NE_C.BMP,stimuli/EmptyFrame.bmp,stimuli/RedFrame.bmp,2,Neutral,Male,3,1,0,31,31,31,,,,,2,1,139.58081720001064,142.58364640013315,143.56657300004736,0.7207812000997365,,,sub024,001,2025_Jul_08_0752,HaririTask_Ver1,3.0.1,None,
Neutral,stimuli/10F_NE_C.BMP,stimuli/10F_NE_C.BMP,stimuli/06F_NE_C.bmp,stimuli/EmptyFrame.bmp,stimuli/RedFrame.bmp,1,Neutral,Female,3,1,0,32,32,32,,,,,1,1,143.5942429001443,146.59871560009196,147.58458300004713,0.6600428998935968,,,sub024,001,2025_Jul_08_0752,HaririTask_Ver1,3.0.1,None,
MatchFaces,stimuli/MatchFaces.bmp,stimuli/EmptyFace.bmp,stimuli/EmptyFace.bmp,stimuli/EmptyFrame.bmp,stimuli/EmptyFrame.bmp,Null,None,None,3,1,0,33,33,33,,,,,None,0,147.72278170008212,150.5977404001169,151.58575109997764,,,,sub024,001,2025_Jul_08_0752,HaririTask_Ver1,3.0.1,None,
Fear,stimuli/07F_FE_O.BMP,stimuli/07F_FE_O.BMP,stimuli/14F_FE_O.BMP,stimuli/EmptyFrame.bmp,stimuli/RedFrame.bmp,1,Fear,Female,3,1,0,34,34,34,,,,,1,1,151.63810120010749,154.61499850009568,155.6069748001173,0.8047739001922309,,,sub024,001,2025_Jul_08_0752,HaririTask_Ver1,3.0.1,None,
Fear,stimuli/25M_FE_O.BMP,stimuli/29M_FE_O.BMP,stimuli/25M_FE_O.BMP,stimuli/EmptyFrame.bmp,stimuli/RedFrame.bmp,2,Fear,Male,3,1,0,35,35,35,,,,,2,1,155.6517583001405,158.63437590003014,159.6274059000425,0.9159421999938786,,,sub024,001,2025_Jul_08_0752,HaririTask_Ver1,3.0.1,None,
Fear,stimuli/26M_FE_O.BMP,stimuli/26M_FE_O.BMP,stimuli/28M_FE_O.BMP,stimuli/EmptyFrame.bmp,stimuli/RedFrame.bmp,1,Fear,Male,3,1,0,36,36,36,,,,,1,1,159.66167620010674,162.6535047001671,163.65110260015354,0.7660896999295801,,,sub024,001,2025_Jul_08_0752,HaririTask_Ver1,3.0.1,None,
Fear,stimuli/08F_FE_O.BMP,stimuli/13F_FE_O.BMP,stimuli/08F_FE_O.BMP,stimuli/EmptyFrame.bmp,stimuli/RedFrame.bmp,2,Fear,Female,3,1,0,37,37,37,,,,,2,1,163.68242070009,166.67743240017444,167.67518969997764,0.6417157000396401,,,sub024,001,2025_Jul_08_0752,HaririTask_Ver1,3.0.1,None,
Fear,stimuli/09F_FE_O.BMP,stimuli/09F_FE_O.BMP,stimuli/12F_FE_O.BMP,stimuli/EmptyFrame.bmp,stimuli/RedFrame.bmp,1,Fear,Female,3,1,0,38,38,38,,,,,1,1,167.71389670018107,170.6973785001319,171.68636490008794,0.6701122999656945,,,sub024,001,2025_Jul_08_0752,HaririTask_Ver1,3.0.1,None,
Fear,stimuli/27M_FE_O.BMP,stimuli/26M_FE_O.BMP,stimuli/27M_FE_O.BMP,stimuli/EmptyFrame.bmp,stimuli/RedFrame.bmp,2,Fear,Male,3,1,0,39,39,39,,,,,2,1,171.71176470001228,174.71160280006006,175.70070170005783,0.6171373000834137,,,sub024,001,2025_Jul_08_0752,HaririTask_Ver1,3.0.1,None,
Fear,stimuli/28M_FE_O.BMP,stimuli/28M_FE_O.BMP,stimuli/25M_FE_O.BMP,stimuli/EmptyFrame.bmp,stimuli/RedFrame.bmp,1,Fear,Male,3,1,0,40,40,40,,,,,1,1,175.73139209998772,178.72669570008293,179.71626640018076,0.6541665999684483,,,sub024,001,2025_Jul_08_0752,HaririTask_Ver1,3.0.1,None,
Fear,stimuli/10F_FE_O.BMP,stimuli/11F_FE_O.BMP,stimuli/10F_FE_O.BMP,stimuli/EmptyFrame.bmp,stimuli/RedFrame.bmp,2,Fear,Female,3,1,0,41,41,41,,,,,2,1,179.74911230010912,182.75400430010632,183.73778029996902,0.5375483999960124,,,sub024,001,2025_Jul_08_0752,HaririTask_Ver1,3.0.1,None,
Fear,stimuli/29M_FE_O.BMP,stimuli/29M_FE_O.BMP,stimuli/24M_FE_O.BMP,stimuli/EmptyFrame.bmp,stimuli/RedFrame.bmp,1,Fear,Male,3,1,0,42,42,42,,,,,1,1,183.76421319996007,186.76997220003977,187.75694120000117,0.5708667999133468,,,sub024,001,2025_Jul_08_0752,HaririTask_Ver1,3.0.1,None,
Fear,stimuli/11F_FE_O.BMP,stimuli/10F_FE_O.BMP,stimuli/11F_FE_O.BMP,stimuli/EmptyFrame.bmp,stimuli/RedFrame.bmp,2,Fear,Female,3,1,0,43,43,43,,,,,2,1,187.78409580001608,190.7921917999629,191.76975490013137,0.5137062000576407,,,sub024,001,2025_Jul_08_0752,HaririTask_Ver1,3.0.1,None,
MatchFaces,stimuli/MatchFaces.bmp,stimuli/EmptyFace.bmp,stimuli/EmptyFace.bmp,stimuli/EmptyFrame.bmp,stimuli/EmptyFrame.bmp,Null,None,None,3,1,0,44,44,44,,,,,None,0,191.90648280014284,194.7925657001324,195.77555400016718,,,,sub024,001,2025_Jul_08_0752,HaririTask_Ver1,3.0.1,None,
Happy,stimuli/19F_HA_O.BMP,stimuli/19F_HA_O.BMP,stimuli/18F_HA_O.BMP,stimuli/EmptyFrame.bmp,stimuli/RedFrame.bmp,1,Happy,Female,3,1,0,45,45,45,,,,,1,1,195.82825090014376,198.80397620005533,199.7922050000634,0.6864485000260174,,,sub024,001,2025_Jul_08_0752,HaririTask_Ver1,3.0.1,None,
Happy,stimuli/17F_HA_O.BMP,stimuli/16F_HA_O.BMP,stimuli/17F_HA_O.BMP,stimuli/EmptyFrame.bmp,stimuli/RedFrame.bmp,2,Happy,Female,3,1,0,46,46,46,,,,,2,1,199.82424030010588,202.82950750016607,203.80073660006747,0.8308226999361068,,,sub024,001,2025_Jul_08_0752,HaririTask_Ver1,3.0.1,None,
Happy,stimuli/43M_HA_O.BMP,stimuli/42M_HA_O.BMP,stimuli/43M_HA_O.BMP,stimuli/EmptyFrame.bmp,stimuli/RedFrame.bmp,2,Happy,Male,3,1,0,47,47,47,,,,,2,1,203.82934870012105,206.83447670005262,207.8238069000654,0.6527402999345213,,,sub024,001,2025_Jul_08_0752,HaririTask_Ver1,3.0.1,None,
Happy,stimuli/41M_HA_O.BMP,stimuli/41M_HA_O.BMP,stimuli/40M_HA_O.BMP,stimuli/EmptyFrame.bmp,stimuli/RedFrame.bmp,1,Happy,Male,3,1,0,48,48,48,,,,,1,1,207.85876490012743,210.8502875000704,211.83613710012287,0.8074866000097245,,,sub024,001,2025_Jul_08_0752,HaririTask_Ver1,3.0.1,None,
Happy,stimuli/15F_HA_O.BMP,stimuli/15F_HA_O.BMP,stimuli/14F_HA_O.BMP,stimuli/EmptyFrame.bmp,stimuli/RedFrame.bmp,1,Happy,Female,3,1,0,49,49,49,,,,,1,1,211.8710491999518,214.85914570000023,215.84778319997713,0.7933392999693751,,,sub024,001,2025_Jul_08_0752,HaririTask_Ver1,3.0.1,None,
Happy,stimuli/13F_HA_O.BMP,stimuli/13F_HA_O.BMP,stimuli/12F_HA_O.BMP,stimuli/EmptyFrame.bmp,stimuli/RedFrame.bmp,1,Happy,Female,3,1,0,50,50,50,,,,,1,1,215.88124909996986,218.88338729995303,219.85901330015622,0.7374716000631452,,,sub024,001,2025_Jul_08_0752,HaririTask_Ver1,3.0.1,None,
Happy,stimuli/39M_HA_O.BMP,stimuli/38M_HA_O.BMP,stimuli/39M_HA_O.BMP,stimuli/EmptyFrame.bmp,stimuli/RedFrame.bmp,2,Happy,Male,3,1,0,51,51,51,,,,,2,1,219.92108210013248,222.8933528000489,223.87165370001458,0.6356185998301953,,,sub024,001,2025_Jul_08_0752,HaririTask_Ver1,3.0.1,None,
Happy,stimuli/37M_HA_O.BMP,stimuli/37M_HA_O.BMP,stimuli/36M_HA_O.BMP,stimuli/EmptyFrame.bmp,stimuli/RedFrame.bmp,1,Happy,Male,3,1,0,52,52,52,,,,,1,1,223.90639690007083,226.90291339997202,227.88845910015516,0.6791371998842806,,,sub024,001,2025_Jul_08_0752,HaririTask_Ver1,3.0.1,None,
Happy,stimuli/35M_HA_O.BMP,stimuli/34M_HA_O.BMP,stimuli/35M_HA_O.BMP,stimuli/EmptyFrame.bmp,stimuli/RedFrame.bmp,2,Happy,Male,3,1,0,53,53,53,,,,,2,1,227.92629620013759,230.91986789996736,231.90063860011287,0.6229572999291122,,,sub024,001,2025_Jul_08_0752,HaririTask_Ver1,3.0.1,None,
Happy,stimuli/11F_HA_O.BMP,stimuli/10F_HA_O.BMP,stimuli/11F_HA_O.BMP,stimuli/EmptyFrame.bmp,stimuli/RedFrame.bmp,2,Happy,Female,3,1,0,54,54,54,,,,,2,1,231.92896450008266,234.9374602001626,235.91843089996837,0.6156664998270571,,,sub024,001,2025_Jul_08_0752,HaririTask_Ver1,3.0.1,None,
Match Shape,stimuli/MatchShapes.bmp,stimuli/EmptyFace.bmp,stimuli/EmptyFace.bmp,stimuli/EmptyFrame.bmp,stimuli/EmptyFrame.bmp,Null,None,None,3,1,0,55,55,55,,,,,None,0,235.9466693000868,238.9288292999845,239.92272200016305,,,,sub024,001,2025_Jul_08_0752,HaririTask_Ver1,3.0.1,None,
Shape,stimuli/circle.bmp,stimuli/vertical.bmp,stimuli/circle.bmp,stimuli/EmptyFrame.bmp,stimuli/RedFrame.bmp,2,Shape,None,3,1,0,56,56,56,,,,,2,1,239.95387160009705,242.95454720011912,243.94307240005583,0.8903510000091046,,,sub024,001,2025_Jul_08_0752,HaririTask_Ver1,3.0.1,None,
Shape,stimuli/horizontal.bmp,stimuli/circle.bmp,stimuli/horizontal.bmp,stimuli/EmptyFrame.bmp,stimuli/RedFrame.bmp,2,Shape,None,3,1,0,57,57,57,,,,,2,1,243.96561870002188,246.97598069999367,247.9530404000543,0.5463052000850439,,,sub024,001,2025_Jul_08_0752,HaririTask_Ver1,3.0.1,None,
Shape,stimuli/vertical.bmp,stimuli/vertical.bmp,stimuli/horizontal.bmp,stimuli/EmptyFrame.bmp,stimuli/RedFrame.bmp,1,Shape,None,3,1,0,58,58,58,,,,,1,1,247.97770930011757,250.9770140000619,251.97136840014718,0.6055904000531882,,,sub024,001,2025_Jul_08_0752,HaririTask_Ver1,3.0.1,None,
Shape,stimuli/horizontal.bmp,stimuli/circle.bmp,stimuli/horizontal.bmp,stimuli/EmptyFrame.bmp,stimuli/RedFrame.bmp,2,Shape,None,3,1,0,59,59,59,,,,,2,1,251.9979576000478,254.99534870008938,255.99124979996122,0.4655973999761045,,,sub024,001,2025_Jul_08_0752,HaririTask_Ver1,3.0.1,None,
Shape,stimuli/horizontal.bmp,stimuli/horizontal.bmp,stimuli/vertical.bmp,stimuli/EmptyFrame.bmp,stimuli/RedFrame.bmp,1,Shape,None,3,1,0,60,60,60,,,,,1,1,256.014535299968,259.0260046001058,260.00471600005403,1.1668145000003278,,,sub024,001,2025_Jul_08_0752,HaririTask_Ver1,3.0.1,None,
Shape,stimuli/vertical.bmp,stimuli/vertical.bmp,stimuli/circle.bmp,stimuli/EmptyFrame.bmp,stimuli/RedFrame.bmp,1,Shape,None,3,1,0,61,61,61,,,,,1,1,260.02516259998083,263.0316562000662,264.02205840009265,0.6534994998946786,,,sub024,001,2025_Jul_08_0752,HaririTask_Ver1,3.0.1,None,
Shape,stimuli/circle.bmp,stimuli/horizontal.bmp,stimuli/circle.bmp,stimuli/EmptyFrame.bmp,stimuli/RedFrame.bmp,2,Shape,None,3,1,0,62,62,62,,,,,2,1,264.0442759001162,267.05401750002056,268.0323131000623,0.5511334999464452,,,sub024,001,2025_Jul_08_0752,HaririTask_Ver1,3.0.1,None,
Shape,stimuli/circle.bmp,stimuli/vertical.bmp,stimuli/circle.bmp,stimuli/EmptyFrame.bmp,stimuli/RedFrame.bmp,2,Shape,None,3,1,0,63,63,63,,,,,2,1,268.057318800129,271.0658883000724,272.04804740007967,0.5534018999896944,,,sub024,001,2025_Jul_08_0752,HaririTask_Ver1,3.0.1,None,
Shape,stimuli/vertical.bmp,stimuli/vertical.bmp,stimuli/horizontal.bmp,stimuli/EmptyFrame.bmp,stimuli/RedFrame.bmp,1,Shape,None,3,1,0,64,64,64,,,,,1,1,272.07232840009965,275.07775230007246,276.06754450011067,0.7104062000289559,,,sub024,001,2025_Jul_08_0752,HaririTask_Ver1,3.0.1,None,
Shape,stimuli/horizontal.bmp,stimuli/horizontal.bmp,stimuli/circle.bmp,stimuli/EmptyFrame.bmp,stimuli/RedFrame.bmp,1,Shape,None,3,1,0,65,65,65,,,,,1,1,276.0921206001658,279.08762200013734,280.0838061000686,0.736930700019002,,,sub024,001,2025_Jul_08_0752,HaririTask_Ver1,3.0.1,None,
MatchFaces,stimuli/MatchFaces.bmp,stimuli/EmptyFace.bmp,stimuli/EmptyFace.bmp,stimuli/EmptyFrame.bmp,stimuli/EmptyFrame.bmp,Null,None,None,3,1,0,66,66,66,,,,,None,0,280.22774330014363,283.0936519999523,284.0993838000577,,,,sub024,001,2025_Jul_08_0752,HaririTask_Ver1,3.0.1,None,
Anger,stimuli/42M_AN_O.BMP,stimuli/42M_AN_O.BMP,stimuli/43M_AN_O.BMP,stimuli/EmptyFrame.bmp,stimuli/RedFrame.bmp,1,Anger,Male,3,1,0,67,67,67,,,,,1,1,284.15341760008596,287.1309650000185,288.1085218000226,0.7662152999546379,,,sub024,001,2025_Jul_08_0752,HaririTask_Ver1,3.0.1,None,
Anger,stimuli/07F_AN_O.BMP,stimuli/07F_AN_O.BMP,stimuli/14F_AN_O.BMP,stimuli/EmptyFrame.bmp,stimuli/RedFrame.bmp,1,Anger,Female,3,1,0,68,68,68,,,,,1,1,288.14029420004226,291.1408123001456,292.1256556001026,0.63907549995929,,,sub024,001,2025_Jul_08_0752,HaririTask_Ver1,3.0.1,None,
Anger,stimuli/40M_AN_O.BMP,stimuli/41M_AN_O.BMP,stimuli/40M_AN_O.BMP,stimuli/EmptyFrame.bmp,stimuli/RedFrame.bmp,2,Anger,Male,3,1,0,69,69,69,,,,,2,1,292.1547556000296,295.1544747001026,296.15189970005304,0.6601178001146764,,,sub024,001,2025_Jul_08_0752,HaririTask_Ver1,3.0.1,None,
Anger,stimuli/38M_AN_O.BMP,stimuli/39M_AN_O.BMP,stimuli/38M_AN_O.BMP,stimuli/EmptyFrame.bmp,stimuli/RedFrame.bmp,2,Anger,Male,3,1,0,70,70,70,,,,,2,1,296.18634100002237,299.18613950000145,300.1699400001671,0.8797444000374526,,,sub024,001,2025_Jul_08_0752,HaririTask_Ver1,3.0.1,None,
Anger,stimuli/08F_AN_O.BMP,stimuli/08F_AN_O.BMP,stimuli/13F_AN_O.BMP,stimuli/EmptyFrame.bmp,stimuli/RedFrame.bmp,1,Anger,Female,3,1,0,71,71,71,,,,,1,1,300.19776330003515,303.20415819995105,304.18320550001226,0.704023800091818,,,sub024,001,2025_Jul_08_0752,HaririTask_Ver1,3.0.1,None,
Anger,stimuli/36M_AN_O.BMP,stimuli/37M_AN_O.BMP,stimuli/36M_AN_O.BMP,stimuli/EmptyFrame.bmp,stimuli/RedFrame.bmp,2,Anger,Male,3,1,0,72,72,72,,,,,2,1,304.21336040017195,307.210617300123,308.1965932000894,0.8568708999082446,,,sub024,001,2025_Jul_08_0752,HaririTask_Ver1,3.0.1,None,
Anger,stimuli/09F_AN_O.BMP,stimuli/12F_AN_O.BMP,stimuli/09F_AN_O.BMP,stimuli/EmptyFrame.bmp,stimuli/RedFrame.bmp,2,Anger,Female,3,1,0,73,73,73,,,,,2,1,308.2269496000372,311.22508400003426,312.2186028000433,0.6056186999194324,,,sub024,001,2025_Jul_08_0752,HaririTask_Ver1,3.0.1,None,
Anger,stimuli/34M_AN_O.BMP,stimuli/35M_AN_O.BMP,stimuli/34M_AN_O.BMP,stimuli/EmptyFrame.bmp,stimuli/RedFrame.bmp,2,Anger,Male,3,1,0,74,74,74,,,,,2,1,312.2445094001014,315.2419231000822,316.2430057001766,0.6533325999043882,,,sub024,001,2025_Jul_08_0752,HaririTask_Ver1,3.0.1,None,
Anger,stimuli/10F_AN_O.BMP,stimuli/10F_AN_O.BMP,stimuli/11F_AN_O.BMP,stimuli/EmptyFrame.bmp,stimuli/RedFrame.bmp,1,Anger,Female,3,1,0,75,75,75,,,,,1,1,316.2779044001363,319.2673396000173,320.2600334000308,0.7527431999333203,,,sub024,001,2025_Jul_08_0752,HaririTask_Ver1,3.0.1,None,
Anger,stimuli/12F_AN_O.BMP,stimuli/12F_AN_O.BMP,stimuli/13F_AN_O.BMP,stimuli/EmptyFrame.bmp,stimuli/RedFrame.bmp,1,Anger,Female,3,1,0,76,76,76,,,,,1,1,320.28462600009516,323.294051800156,324.2849707000423,0.9286082000471652,,,sub024,001,2025_Jul_08_0752,HaririTask_Ver1,3.0.1,None,
MatchFaces,stimuli/MatchFaces.bmp,stimuli/EmptyFace.bmp,stimuli/EmptyFace.bmp,stimuli/EmptyFrame.bmp,stimuli/EmptyFrame.bmp,Null,None,None,3,1,0,77,77,77,,,,,None,0,324.4224668999668,327.3023540000431,328.3002522001043,,,,sub024,001,2025_Jul_08_0752,HaririTask_Ver1,3.0.1,None,
Happy,stimuli/20M_HA_O.BMP,stimuli/21M_HA_O.BMP,stimuli/20M_HA_O.BMP,stimuli/EmptyFrame.bmp,stimuli/RedFrame.bmp,2,Happy,Male,3,1,0,78,78,78,,,,,2,1,328.3546794001013,331.3317627001088,332.3158826001454,0.9731469000689685,,,sub024,001,2025_Jul_08_0752,HaririTask_Ver1,3.0.1,None,
Happy,stimuli/01F_HA_O.bmp,stimuli/01F_HA_O.bmp,stimuli/02F_HA_O.bmp,stimuli/EmptyFrame.bmp,stimuli/RedFrame.bmp,1,Happy,Female,3,1,0,79,79,79,,,,,1,1,332.34223349997774,335.34377499995753,336.3312150000129,0.7066393001005054,,,sub024,001,2025_Jul_08_0752,HaririTask_Ver1,3.0.1,None,
Happy,stimuli/22M_HA_O.BMP,stimuli/23M_HA_O.BMP,stimuli/22M_HA_O.BMP,stimuli/EmptyFrame.bmp,stimuli/RedFrame.bmp,2,Happy,Male,3,1,0,80,80,80,,,,,2,1,336.36037460016087,339.37284140009433,340.35092150000855,0.8106561000458896,,,sub024,001,2025_Jul_08_0752,HaririTask_Ver1,3.0.1,None,
Happy,stimuli/24M_HA_O.BMP,stimuli/24M_HA_O.BMP,stimuli/25M_HA_O.BMP,stimuli/EmptyFrame.bmp,stimuli/RedFrame.bmp,1,Happy,Male,3,1,0,81,81,81,,,,,1,1,340.38324760016985,343.37714860006236,344.3727871000301,0.6364917999599129,,,sub024,001,2025_Jul_08_0752,HaririTask_Ver1,3.0.1,None,
Happy,stimuli/03F_HA_O.bmp,stimuli/05F_HA_O.bmp,stimuli/03F_HA_O.bmp,stimuli/EmptyFrame.bmp,stimuli/RedFrame.bmp,2,Happy,Female,3,1,0,82,82,82,,,,,2,1,344.40829510008916,347.40462250006385,348.39281840017065,0.5550989999901503,,,sub024,001,2025_Jul_08_0752,HaririTask_Ver1,3.0.1,None,
Happy,stimuli/26M_HA_O.BMP,stimuli/26M_HA_O.BMP,stimuli/27M_HA_O.BMP,stimuli/EmptyFrame.bmp,stimuli/RedFrame.bmp,1,Happy,Male,3,1,0,83,83,83,,,,,1,1,348.42061570007354,351.4231803000439,352.4199463000987,0.704978299792856,,,sub024,001,2025_Jul_08_0752,HaririTask_Ver1,3.0.1,None,
Happy,stimuli/06F_HA_O.bmp,stimuli/07F_HA_O.BMP,stimuli/06F_HA_O.bmp,stimuli/EmptyFrame.bmp,stimuli/RedFrame.bmp,2,Happy,Female,3,1,0,84,84,84,,,,,2,1,352.45117669994943,355.45634080003947,356.4344135001302,0.5810816001612693,,,sub024,001,2025_Jul_08_0752,HaririTask_Ver1,3.0.1,None,
Happy,stimuli/08F_HA_O.BMP,stimuli/08F_HA_O.BMP,stimuli/09F_HA_O.BMP,stimuli/EmptyFrame.bmp,stimuli/RedFrame.bmp,1,Happy,Female,3,1,0,85,85,85,,,,,1,1,356.4635934000835,359.46876000007614,360.44752599997446,0.6505458001047373,,,sub024,001,2025_Jul_08_0752,HaririTask_Ver1,3.0.1,None,
Happy,stimuli/28M_HA_O.BMP,stimuli/29M_HA_O.BMP,stimuli/28M_HA_O.BMP,stimuli/EmptyFrame.bmp,stimuli/RedFrame.bmp,2,Happy,Male,3,1,0,86,86,86,,,,,2,1,360.47485120012425,363.47817220003344,364.4631807000842,0.7529493998736143,,,sub024,001,2025_Jul_08_0752,HaririTask_Ver1,3.0.1,None,
Happy,stimuli/10F_HA_O.BMP,stimuli/10F_HA_O.BMP,stimuli/06F_HA_O.bmp,stimuli/EmptyFrame.bmp,stimuli/RedFrame.bmp,1,Happy,Female,3,1,0,87,87,87,,,,,1,1,364.4877274001483,367.4905809999909,368.48147150012664,0.7591655000578612,,,sub024,001,2025_Jul_08_0752,HaririTask_Ver1,3.0.1,None,
MatchFaces,stimuli/MatchFaces.bmp,stimuli/EmptyFace.bmp,stimuli/EmptyFace.bmp,stimuli/EmptyFrame.bmp,stimuli/EmptyFrame.bmp,Null,None,None,3,1,0,88,88,88,,,,,None,0,368.62558820005506,371.49886000016704,372.48873160011135,,,,sub024,001,2025_Jul_08_0752,HaririTask_Ver1,3.0.1,None,
Neutral,stimuli/07F_NE_C.BMP,stimuli/07F_NE_C.BMP,stimuli/14F_NE_C.BMP,stimuli/EmptyFrame.bmp,stimuli/RedFrame.bmp,1,Neutral,Female,3,1,0,89,89,89,,,,,1,1,372.5435147001408,375.5171654999722,376.5058834000956,0.6713039998430759,,,sub024,001,2025_Jul_08_0752,HaririTask_Ver1,3.0.1,None,
Neutral,stimuli/25M_NE_C.BMP,stimuli/29M_NE_C.BMP,stimuli/25M_NE_C.BMP,stimuli/EmptyFrame.bmp,stimuli/RedFrame.bmp,2,Neutral,Male,3,1,0,90,90,90,,,,,2,1,376.5316083000507,379.53270570002496,380.5220537001733,0.5800149999558926,,,sub024,001,2025_Jul_08_0752,HaririTask_Ver1,3.0.1,None,
Neutral,stimuli/26M_NE_C.BMP,stimuli/26M_NE_C.BMP,stimuli/28M_NE_C.BMP,stimuli/EmptyFrame.bmp,stimuli/RedFrame.bmp,1,Neutral,Male,3,1,0,91,91,91,,,,,1,1,380.54619550006464,383.5483240999747,384.5391252001282,0.6198086999356747,,,sub024,001,2025_Jul_08_0752,HaririTask_Ver1,3.0.1,None,
Neutral,stimuli/08F_NE_C.BMP,stimuli/13F_NE_C.BMP,stimuli/08F_NE_C.BMP,stimuli/EmptyFrame.bmp,stimuli/RedFrame.bmp,2,Neutral,Female,3,1,0,92,92,92,,,,,2,1,384.5670831000898,387.57280439999886,388.558843200095,0.6959550001192838,,,sub024,001,2025_Jul_08_0752,HaririTask_Ver1,3.0.1,None,
Neutral,stimuli/09F_NE_C.BMP,stimuli/09F_NE_C.BMP,stimuli/12F_NE_C.BMP,stimuli/EmptyFrame.bmp,stimuli/RedFrame.bmp,1,Neutral,Female,3,1,0,93,93,93,,,,,1,1,388.5886456000153,391.58632420003414,392.5745141999796,0.6434957999736071,,,sub024,001,2025_Jul_08_0752,HaririTask_Ver1,3.0.1,None,
Neutral,stimuli/27M_NE_C.BMP,stimuli/26M_NE_C.BMP,stimuli/27M_NE_C.BMP,stimuli/EmptyFrame.bmp,stimuli/RedFrame.bmp,2,Neutral,Male,3,1,0,94,94,94,,,,,2,1,392.60225680004805,395.5999215999618,396.58733250014484,0.6593059999868274,,,sub024,001,2025_Jul_08_0752,HaririTask_Ver1,3.0.1,None,
Neutral,stimuli/28M_NE_C.BMP,stimuli/28M_NE_C.BMP,stimuli/25M_NE_C.BMP,stimuli/EmptyFrame.bmp,stimuli/RedFrame.bmp,1,Neutral,Male,3,1,0,95,95,95,,,,,1,1,396.6141615000088,399.6142572001554,400.6012482000515,0.695330600021407,,,sub024,001,2025_Jul_08_0752,HaririTask_Ver1,3.0.1,None,
Neutral,stimuli/10F_NE_C.BMP,stimuli/11F_NE_C.BMP,stimuli/10F_NE_C.BMP,stimuli/EmptyFrame.bmp,stimuli/RedFrame.bmp,2,Neutral,Female,3,1,0,96,96,96,,,,,2,1,400.63295620004646,403.6255014000926,404.6358515000902,0.5619016001001,,,sub024,001,2025_Jul_08_0752,HaririTask_Ver1,3.0.1,None,
Neutral,stimuli/29M_NE_C.BMP,stimuli/29M_NE_C.BMP,stimuli/24M_NE_C.BMP,stimuli/EmptyFrame.bmp,stimuli/RedFrame.bmp,1,Neutral,Male,3,1,0,97,97,97,,,,,1,1,404.659426700091,407.6671023000963,408.65252660005353,0.5541464001871645,,,sub024,001,2025_Jul_08_0752,HaririTask_Ver1,3.0.1,None,
Neutral,stimuli/11F_NE_C.BMP,stimuli/10F_NE_C.BMP,stimuli/11F_NE_C.BMP,stimuli/EmptyFrame.bmp,stimuli/RedFrame.bmp,2,Neutral,Female,3,1,0,98,98,98,,,,,2,1,408.67558680009097,411.6849327001255,412.67280010017566,0.549597900127992,,,sub024,001,2025_Jul_08_0752,HaririTask_Ver1,3.0.1,None,
MatchFaces,stimuli/MatchFaces.bmp,stimuli/EmptyFace.bmp,stimuli/EmptyFace.bmp,stimuli/EmptyFrame.bmp,stimuli/EmptyFrame.bmp,Null,None,None,3,1,0,99,99,99,,,,,None,0,412.8401234000921,415.6958429000806,416.67760689998977,,,,sub024,001,2025_Jul_08_0752,HaririTask_Ver1,3.0.1,None,
Fear,stimuli/23M_FE_O.BMP,stimuli/23M_FE_O.BMP,stimuli/24M_FE_O.BMP,stimuli/EmptyFrame.bmp,stimuli/RedFrame.bmp,1,Fear,Male,3,1,0,100,100,100,,,,,1,1,416.7316529999953,419.70025019999593,420.6995763001032,1.067700000014156,,,sub024,001,2025_Jul_08_0752,HaririTask_Ver1,3.0.1,None,
Fear,stimuli/19F_FE_O.BMP,stimuli/18F_FE_O.BMP,stimuli/19F_FE_O.BMP,stimuli/EmptyFrame.bmp,stimuli/RedFrame.bmp,2,Fear,Female,3,1,0,101,101,101,,,,,2,1,420.7329134000465,423.725230100099,424.71134559996426,0.7270827000029385,,,sub024,001,2025_Jul_08_0752,HaririTask_Ver1,3.0.1,None,
Fear,stimuli/17F_FE_O.BMP,stimuli/17F_FE_O.BMP,stimuli/16F_FE_O.BMP,stimuli/EmptyFrame.bmp,stimuli/RedFrame.bmp,1,Fear,Female,3,1,0,102,102,102,,,,,1,1,424.7383141000755,427.73518780013546,428.72602710011415,0.7582996001001447,,,sub024,001,2025_Jul_08_0752,HaririTask_Ver1,3.0.1,None,
Fear,stimuli/15F_FE_O.BMP,stimuli/18F_FE_O.BMP,stimuli/15F_FE_O.BMP,stimuli/EmptyFrame.bmp,stimuli/RedFrame.bmp,2,Fear,Female,3,1,0,103,103,103,,,,,2,1,428.7565931000281,431.75707140006125,432.749334000051,0.6413360000588,,,sub024,001,2025_Jul_08_0752,HaririTask_Ver1,3.0.1,None,
Fear,stimuli/21M_FE_O.BMP,stimuli/21M_FE_O.BMP,stimuli/22M_FE_O.BMP,stimuli/EmptyFrame.bmp,stimuli/RedFrame.bmp,1,Fear,Male,3,1,0,104,104,104,,,,,1,1,432.7822180001531,435.79228690010495,436.764800200006,0.6638263000641018,,,sub024,001,2025_Jul_08_0752,HaririTask_Ver1,3.0.1,None,
Fear,stimuli/29M_FE_O.BMP,stimuli/30M_FE_O.BMP,stimuli/29M_FE_O.BMP,stimuli/EmptyFrame.bmp,stimuli/RedFrame.bmp,2,Fear,Male,3,1,0,105,105,105,,,,,2,1,436.79229360003956,439.8014695001766,440.7779081000481,0.5811153999529779,,,sub024,001,2025_Jul_08_0752,HaririTask_Ver1,3.0.1,None,
Fear,stimuli/31M_FE_O.BMP,stimuli/31M_FE_O.BMP,stimuli/38M_FE_O.BMP,stimuli/EmptyFrame.bmp,stimuli/RedFrame.bmp,1,Fear,Male,3,1,0,106,106,106,,,,,1,1,440.8093707000371,443.8013045999687,444.7977436000947,0.6722921000327915,,,sub024,001,2025_Jul_08_0752,HaririTask_Ver1,3.0.1,None,
Fear,stimuli/09F_FE_O.BMP,stimuli/07F_FE_O.BMP,stimuli/09F_FE_O.BMP,stimuli/EmptyFrame.bmp,stimuli/RedFrame.bmp,2,Fear,Female,3,1,0,107,107,107,,,,,2,1,444.82201670017093,447.82019990007393,448.8069211000111,0.5924683001358062,,,sub024,001,2025_Jul_08_0752,HaririTask_Ver1,3.0.1,None,
Fear,stimuli/11F_FE_O.BMP,stimuli/12F_FE_O.BMP,stimuli/11F_FE_O.BMP,stimuli/EmptyFrame.bmp,stimuli/RedFrame.bmp,2,Fear,Female,3,1,0,108,108,108,,,,,2,1,448.83277970016934,451.8315284999553,452.8244241999928,0.7263269999530166,,,sub024,001,2025_Jul_08_0752,HaririTask_Ver1,3.0.1,None,
Fear,stimuli/34M_FE_O.BMP,stimuli/34M_FE_O.BMP,stimuli/33M_FE_O.BMP,stimuli/EmptyFrame.bmp,stimuli/RedFrame.bmp,1,Fear,Male,3,1,0,109,109,109,,,,,1,1,452.8528414000757,455.85429970012046,456.8355745000299,0.7817172999493778,,,sub024,001,2025_Jul_08_0752,HaririTask_Ver1,3.0.1,None,
,,,,,,,,,,,,,,,,,,,,,,,,,456.8622747999616,471.8359239001293,,,,,,,
