TrialType,Top,Left,Right,EmptyFrame,SelectedFrame,Correct,Emotion,Gender,TrialLength,FixationLength,n,GCFaceStartTime_mean,GCFaceStartTime_raw,GCFaceStartTime_std,GCPostFaceFixationEndTime_mean,GCPostFaceFixationEndTime_raw,GCPostFaceFixationEndTime_std,GCPostFaceFixationStartTime_mean,GCPostFaceFixationStartTime_raw,GCPostFaceFixationStartTime_std,key_resp_trial.corr_mean,key_resp_trial.corr_raw,key_resp_trial.corr_std,key_resp_trial.keys_raw,key_resp_trial.rt_mean,key_resp_trial.rt_raw,key_resp_trial.rt_std,order
MatchFaces,stimuli/MatchFaces.bmp,stimuli/EmptyFace.bmp,stimuli/EmptyFace.bmp,stimuli/EmptyFrame.bmp,stimuli/EmptyFrame.bmp,Null,None,None,3,1,1.0,15.530107498168945,15.530107498168945,0.0,19.049089431762695,19.049089431762695,0.0,18.059904098510742,18.059904098510742,0.0,0.0,0.0,0.0,,,,,0.0
Anger,stimuli/01F_AN_O.bmp,stimuli/19F_AN_O.BMP,stimuli/01F_AN_O.bmp,stimuli/EmptyFrame.bmp,stimuli/RedFrame.bmp,2,Anger,Female,3,1,1.0,19.24492073059082,19.24492073059082,0.0,23.071550369262695,23.071550369262695,0.0,22.08447265625,22.08447265625,0.0,1.0,1.0,0.0,'2',0.8458302021026611,0.8458302021026611,0.0,1.0
Anger,stimuli/02f_an_o.bmp,stimuli/18F_AN_O.BMP,stimuli/02f_an_o.bmp,stimuli/EmptyFrame.bmp,stimuli/RedFrame.bmp,2,Anger,Female,3,1,1.0,23.10424041748047,23.10424041748047,0.0,27.0883846282959,27.0883846282959,0.0,26.1001033782959,26.1001033782959,0.0,1.0,1.0,0.0,'2',0.700878381729126,0.700878381729126,0.0,2.0
Anger,stimuli/20M_AN_O.BMP,stimuli/34M_AN_O.BMP,stimuli/20M_AN_O.BMP,stimuli/EmptyFrame.bmp,stimuli/RedFrame.bmp,2,Anger,Male,3,1,1.0,27.114601135253906,27.114601135253906,0.0,31.112375259399414,31.112375259399414,0.0,30.142742156982422,30.142742156982422,0.0,1.0,1.0,0.0,'2',0.6843017935752869,0.6843017935752869,0.0,3.0
Anger,stimuli/03F_AN_O.bmp,stimuli/03F_AN_O.bmp,stimuli/17F_AN_O.BMP,stimuli/EmptyFrame.bmp,stimuli/RedFrame.bmp,1,Anger,Female,3,1,1.0,31.153650283813477,31.153650283813477,0.0,35.143680572509766,35.143680572509766,0.0,34.144771575927734,34.144771575927734,0.0,1.0,1.0,0.0,'1',0.7277371883392334,0.7277371883392334,0.0,4.0
Anger,stimuli/21M_AN_O.BMP,stimuli/21M_AN_O.BMP,stimuli/33M_AN_O.BMP,stimuli/EmptyFrame.bmp,stimuli/RedFrame.bmp,1,Anger,Male,3,1,1.0,35.170040130615234,35.170040130615234,0.0,39.16276931762695,39.16276931762695,0.0,38.19009017944336,38.19009017944336,0.0,1.0,1.0,0.0,'1',0.9740787744522095,0.9740787744522095,0.0,5.0
Anger,stimuli/22M_AN_O.BMP,stimuli/32M_AN_O.BMP,stimuli/22M_AN_O.BMP,stimuli/EmptyFrame.bmp,stimuli/RedFrame.bmp,2,Anger,Male,3,1,1.0,39.18464279174805,39.18464279174805,0.0,43.18083572387695,43.18083572387695,0.0,42.19615173339844,42.19615173339844,0.0,1.0,1.0,0.0,'2',0.6593047976493835,0.6593047976493835,0.0,6.0
Anger,stimuli/23M_AN_O.BMP,stimuli/23M_AN_O.BMP,stimuli/31M_AN_O.BMP,stimuli/EmptyFrame.bmp,stimuli/RedFrame.bmp,1,Anger,Male,3,1,1.0,43.2069091796875,43.2069091796875,0.0,47.2203254699707,47.2203254699707,0.0,46.232242584228516,46.232242584228516,0.0,1.0,1.0,0.0,'1',0.7860710024833679,0.7860710024833679,0.0,7.0
Anger,stimuli/05F_AN_O.bmp,stimuli/05F_AN_O.bmp,stimuli/16F_AN_O.BMP,stimuli/EmptyFrame.bmp,stimuli/RedFrame.bmp,1,Anger,Female,3,1,1.0,47.25371551513672,47.25371551513672,0.0,51.23919677734375,51.23919677734375,0.0,50.248905181884766,50.248905181884766,0.0,1.0,1.0,0.0,'1',0.6345577239990234,0.6345577239990234,0.0,8.0
Anger,stimuli/06F_AN_O.bmp,stimuli/15F_AN_O.BMP,stimuli/06F_AN_O.bmp,stimuli/EmptyFrame.bmp,stimuli/RedFrame.bmp,2,Anger,Female,3,1,1.0,51.28324890136719,51.28324890136719,0.0,55.25542449951172,55.25542449951172,0.0,54.2623176574707,54.2623176574707,0.0,1.0,1.0,0.0,'2',0.7263854146003723,0.7263854146003723,0.0,9.0
Anger,stimuli/24M_AN_O.BMP,stimuli/24M_AN_O.BMP,stimuli/30M_AN_O.BMP,stimuli/EmptyFrame.bmp,stimuli/RedFrame.bmp,1,Anger,Male,3,1,1.0,55.28173828125,55.28173828125,0.0,59.27037048339844,59.27037048339844,0.0,58.281341552734375,58.281341552734375,0.0,1.0,1.0,0.0,'1',0.6355285048484802,0.6355285048484802,0.0,10.0
MatchShape,stimuli/MatchShapes.bmp,stimuli/EmptyFace.bmp,stimuli/EmptyFace.bmp,stimuli/EmptyFrame.bmp,stimuli/EmptyFrame.bmp,Null,None,None,3,1,1.0,59.29701232910156,59.29701232910156,0.0,63.274845123291016,63.274845123291016,0.0,62.287166595458984,62.287166595458984,0.0,0.0,0.0,0.0,,,,,11.0
Shape,stimuli/horizontal.bmp,stimuli/horizontal.bmp,stimuli/circle.bmp,stimuli/EmptyFrame.bmp,stimuli/RedFrame.bmp,1,Shape,None,3,1,1.0,63.30443572998047,63.30443572998047,0.0,67.28630828857422,67.28630828857422,0.0,66.30159759521484,66.30159759521484,0.0,1.0,1.0,0.0,'1',0.5776376724243164,0.5776376724243164,0.0,12.0
Shape,stimuli/vertical.bmp,stimuli/horizontal.bmp,stimuli/vertical.bmp,stimuli/EmptyFrame.bmp,stimuli/RedFrame.bmp,2,Shape,None,3,1,1.0,67.30892181396484,67.30892181396484,0.0,71.29747009277344,71.29747009277344,0.0,70.3081283569336,70.3081283569336,0.0,1.0,1.0,0.0,'2',0.6500266194343567,0.6500266194343567,0.0,13.0
Shape,stimuli/horizontal.bmp,stimuli/horizontal.bmp,stimuli/vertical.bmp,stimuli/EmptyFrame.bmp,stimuli/RedFrame.bmp,1,Shape,None,3,1,1.0,71.32035827636719,71.32035827636719,0.0,75.31053924560547,75.31053924560547,0.0,74.32655334472656,74.32655334472656,0.0,1.0,1.0,0.0,'1',0.7921857833862305,0.7921857833862305,0.0,14.0
Shape,stimuli/horizontal.bmp,stimuli/circle.bmp,stimuli/horizontal.bmp,stimuli/EmptyFrame.bmp,stimuli/RedFrame.bmp,2,Shape,None,3,1,1.0,75.33251953125,75.33251953125,0.0,79.33222961425781,79.33222961425781,0.0,78.33590698242188,78.33590698242188,0.0,1.0,1.0,0.0,'2',0.6613206267356873,0.6613206267356873,0.0,15.0
Shape,stimuli/circle.bmp,stimuli/circle.bmp,stimuli/vertical.bmp,stimuli/EmptyFrame.bmp,stimuli/RedFrame.bmp,1,Shape,None,3,1,1.0,79.35552215576172,79.35552215576172,0.0,83.35127258300781,83.35127258300781,0.0,82.36216735839844,82.36216735839844,0.0,1.0,1.0,0.0,'1',0.8081101179122925,0.8081101179122925,0.0,16.0
Shape,stimuli/circle.bmp,stimuli/circle.bmp,stimuli/horizontal.bmp,stimuli/EmptyFrame.bmp,stimuli/RedFrame.bmp,1,Shape,None,3,1,1.0,83.3735122680664,83.3735122680664,0.0,87.37075805664062,87.37075805664062,0.0,86.38221740722656,86.38221740722656,0.0,1.0,1.0,0.0,'1',0.700741708278656,0.700741708278656,0.0,17.0
Shape,stimuli/vertical.bmp,stimuli/circle.bmp,stimuli/vertical.bmp,stimuli/EmptyFrame.bmp,stimuli/RedFrame.bmp,2,Shape,None,3,1,1.0,87.39588165283203,87.39588165283203,0.0,91.38313293457031,91.38313293457031,0.0,90.40567016601562,90.40567016601562,0.0,1.0,1.0,0.0,'2',0.5681642293930054,0.5681642293930054,0.0,18.0
Shape,stimuli/circle.bmp,stimuli/vertical.bmp,stimuli/circle.bmp,stimuli/EmptyFrame.bmp,stimuli/RedFrame.bmp,2,Shape,None,3,1,1.0,91.40702819824219,91.40702819824219,0.0,95.39877319335938,95.39877319335938,0.0,94.41728973388672,94.41728973388672,0.0,1.0,1.0,0.0,'2',0.6680132746696472,0.6680132746696472,0.0,19.0
Shape,stimuli/vertical.bmp,stimuli/horizontal.bmp,stimuli/vertical.bmp,stimuli/EmptyFrame.bmp,stimuli/RedFrame.bmp,2,Shape,None,3,1,1.0,95.42194366455078,95.42194366455078,0.0,99.41411590576172,99.41411590576172,0.0,98.43519592285156,98.43519592285156,0.0,1.0,1.0,0.0,'2',0.6033167839050293,0.6033167839050293,0.0,20.0
Shape,stimuli/vertical.bmp,stimuli/vertical.bmp,stimuli/circle.bmp,stimuli/EmptyFrame.bmp,stimuli/RedFrame.bmp,1,Shape,None,3,1,1.0,99.43719482421875,99.43719482421875,0.0,103.42887115478516,103.42887115478516,0.0,102.43932342529297,102.43932342529297,0.0,1.0,1.0,0.0,'1',0.8204385042190552,0.8204385042190552,0.0,21.0
MatchFaces,stimuli/MatchFaces.bmp,stimuli/EmptyFace.bmp,stimuli/EmptyFace.bmp,stimuli/EmptyFrame.bmp,stimuli/EmptyFrame.bmp,Null,None,None,3,1,1.0,103.63611602783203,103.63611602783203,0.0,107.43415832519531,107.43415832519531,0.0,106.44660186767578,106.44660186767578,0.0,0.0,0.0,0.0,,,,,22.0
Neutral,stimuli/20M_NE_C.BMP,stimuli/21M_NE_C.BMP,stimuli/20M_NE_C.BMP,stimuli/EmptyFrame.bmp,stimuli/RedFrame.bmp,2,Neutral,Male,3,1,1.0,107.50047302246094,107.50047302246094,0.0,111.45403289794922,111.45403289794922,0.0,110.4754638671875,110.4754638671875,0.0,1.0,1.0,0.0,'2',0.7787051796913147,0.7787051796913147,0.0,23.0
Neutral,stimuli/01F_NE_C.bmp,stimuli/01F_NE_C.bmp,stimuli/02F_NE_C.bmp,stimuli/EmptyFrame.bmp,stimuli/RedFrame.bmp,1,Neutral,Female,3,1,1.0,111.47813415527344,111.47813415527344,0.0,115.4717025756836,115.4717025756836,0.0,114.48593139648438,114.48593139648438,0.0,1.0,1.0,0.0,'1',0.586386501789093,0.586386501789093,0.0,24.0
Neutral,stimuli/22M_NE_C.BMP,stimuli/23M_NE_C.BMP,stimuli/22M_NE_C.BMP,stimuli/EmptyFrame.bmp,stimuli/RedFrame.bmp,2,Neutral,Male,3,1,1.0,115.49848175048828,115.49848175048828,0.0,119.48868560791016,119.48868560791016,0.0,118.49950408935547,118.49950408935547,0.0,1.0,1.0,0.0,'2',0.6505036950111389,0.6505036950111389,0.0,25.0
Neutral,stimuli/24M_NE_C.BMP,stimuli/24M_NE_C.BMP,stimuli/25M_NE_C.BMP,stimuli/EmptyFrame.bmp,stimuli/RedFrame.bmp,1,Neutral,Male,3,1,1.0,119.51580047607422,119.51580047607422,0.0,123.50352478027344,123.50352478027344,0.0,122.52335357666016,122.52335357666016,0.0,1.0,1.0,0.0,'1',0.7776526808738708,0.7776526808738708,0.0,26.0
Neutral,stimuli/03F_NE_C.bmp,stimuli/05F_NE_C.bmp,stimuli/03F_NE_C.bmp,stimuli/EmptyFrame.bmp,stimuli/RedFrame.bmp,2,Neutral,Female,3,1,1.0,123.52831268310547,123.52831268310547,0.0,127.51666259765625,127.51666259765625,0.0,126.52851104736328,126.52851104736328,0.0,1.0,1.0,0.0,'2',0.7601907253265381,0.7601907253265381,0.0,27.0
Neutral,stimuli/26M_NE_C.BMP,stimuli/26M_NE_C.BMP,stimuli/27M_NE_C.BMP,stimuli/EmptyFrame.bmp,stimuli/RedFrame.bmp,1,Neutral,Male,3,1,1.0,127.54083251953125,127.54083251953125,0.0,131.52784729003906,131.52784729003906,0.0,130.54013061523438,130.54013061523438,0.0,1.0,1.0,0.0,'1',0.7882297039031982,0.7882297039031982,0.0,28.0
Neutral,stimuli/06F_NE_C.bmp,stimuli/07F_NE_C.BMP,stimuli/06F_NE_C.bmp,stimuli/EmptyFrame.bmp,stimuli/RedFrame.bmp,2,Neutral,Female,3,1,1.0,131.5513153076172,131.5513153076172,0.0,135.54608154296875,135.54608154296875,0.0,134.55868530273438,134.55868530273438,0.0,1.0,1.0,0.0,'2',0.7227345108985901,0.7227345108985901,0.0,29.0
Neutral,stimuli/08F_NE_C.BMP,stimuli/08F_NE_C.BMP,stimuli/09F_NE_C.BMP,stimuli/EmptyFrame.bmp,stimuli/RedFrame.bmp,1,Neutral,Female,3,1,1.0,135.57012939453125,135.57012939453125,0.0,139.56976318359375,139.56976318359375,0.0,138.57925415039062,138.57925415039062,0.0,1.0,1.0,0.0,'1',0.7885050773620605,0.7885050773620605,0.0,30.0
Neutral,stimuli/28M_NE_C.BMP,stimuli/29M_NE_C.BMP,stimuli/28M_NE_C.BMP,stimuli/EmptyFrame.bmp,stimuli/RedFrame.bmp,2,Neutral,Male,3,1,1.0,139.5940399169922,139.5940399169922,0.0,143.58389282226562,143.58389282226562,0.0,142.60116577148438,142.60116577148438,0.0,1.0,1.0,0.0,'2',0.6927087903022766,0.6927087903022766,0.0,31.0
Neutral,stimuli/10F_NE_C.BMP,stimuli/10F_NE_C.BMP,stimuli/06F_NE_C.bmp,stimuli/EmptyFrame.bmp,stimuli/RedFrame.bmp,1,Neutral,Female,3,1,1.0,143.61245727539062,143.61245727539062,0.0,147.6065216064453,147.6065216064453,0.0,146.62591552734375,146.62591552734375,0.0,1.0,1.0,0.0,'1',0.867333173751831,0.867333173751831,0.0,32.0
MatchFaces,stimuli/MatchFaces.bmp,stimuli/EmptyFace.bmp,stimuli/EmptyFace.bmp,stimuli/EmptyFrame.bmp,stimuli/EmptyFrame.bmp,Null,None,None,3,1,1.0,147.8177947998047,147.8177947998047,0.0,151.609375,151.609375,0.0,150.6182403564453,150.6182403564453,0.0,0.0,0.0,0.0,,,,,33.0
Fear,stimuli/07F_FE_O.BMP,stimuli/07F_FE_O.BMP,stimuli/14F_FE_O.BMP,stimuli/EmptyFrame.bmp,stimuli/RedFrame.bmp,1,Fear,Female,3,1,1.0,151.70718383789062,151.70718383789062,0.0,155.62554931640625,155.62554931640625,0.0,154.64370727539062,154.64370727539062,0.0,1.0,1.0,0.0,'1',0.7453352808952332,0.7453352808952332,0.0,34.0
Fear,stimuli/25M_FE_O.BMP,stimuli/29M_FE_O.BMP,stimuli/25M_FE_O.BMP,stimuli/EmptyFrame.bmp,stimuli/RedFrame.bmp,2,Fear,Male,3,1,1.0,155.65106201171875,155.65106201171875,0.0,159.64788818359375,159.64788818359375,0.0,158.6611328125,158.6611328125,0.0,1.0,1.0,0.0,'2',0.78023761510849,0.78023761510849,0.0,35.0
Fear,stimuli/26M_FE_O.BMP,stimuli/26M_FE_O.BMP,stimuli/28M_FE_O.BMP,stimuli/EmptyFrame.bmp,stimuli/RedFrame.bmp,1,Fear,Male,3,1,1.0,159.66738891601562,159.66738891601562,0.0,163.66896057128906,163.66896057128906,0.0,162.6721649169922,162.6721649169922,0.0,1.0,1.0,0.0,'1',0.6491525173187256,0.6491525173187256,0.0,36.0
Fear,stimuli/08F_FE_O.BMP,stimuli/13F_FE_O.BMP,stimuli/08F_FE_O.BMP,stimuli/EmptyFrame.bmp,stimuli/RedFrame.bmp,2,Fear,Female,3,1,1.0,163.69671630859375,163.69671630859375,0.0,167.68692016601562,167.68692016601562,0.0,166.6941680908203,166.6941680908203,0.0,1.0,1.0,0.0,'2',0.8484386205673218,0.8484386205673218,0.0,37.0
Fear,stimuli/09F_FE_O.BMP,stimuli/09F_FE_O.BMP,stimuli/12F_FE_O.BMP,stimuli/EmptyFrame.bmp,stimuli/RedFrame.bmp,1,Fear,Female,3,1,1.0,167.7119598388672,167.7119598388672,0.0,171.70205688476562,171.70205688476562,0.0,170.7145233154297,170.7145233154297,0.0,1.0,1.0,0.0,'1',0.6461896896362305,0.6461896896362305,0.0,38.0
Fear,stimuli/27M_FE_O.BMP,stimuli/26M_FE_O.BMP,stimuli/27M_FE_O.BMP,stimuli/EmptyFrame.bmp,stimuli/RedFrame.bmp,2,Fear,Male,3,1,1.0,171.72695922851562,171.72695922851562,0.0,175.71176147460938,175.71176147460938,0.0,174.73146057128906,174.73146057128906,0.0,1.0,1.0,0.0,'2',0.9963611960411072,0.9963611960411072,0.0,39.0
Fear,stimuli/28M_FE_O.BMP,stimuli/28M_FE_O.BMP,stimuli/25M_FE_O.BMP,stimuli/EmptyFrame.bmp,stimuli/RedFrame.bmp,1,Fear,Male,3,1,1.0,175.73587036132812,175.73587036132812,0.0,179.72494506835938,179.72494506835938,0.0,178.74600219726562,178.74600219726562,0.0,1.0,1.0,0.0,'1',0.614862322807312,0.614862322807312,0.0,40.0
Fear,stimuli/10F_FE_O.BMP,stimuli/11F_FE_O.BMP,stimuli/10F_FE_O.BMP,stimuli/EmptyFrame.bmp,stimuli/RedFrame.bmp,2,Fear,Female,3,1,1.0,179.75265502929688,179.75265502929688,0.0,183.74790954589844,183.74790954589844,0.0,182.7664794921875,182.7664794921875,0.0,1.0,1.0,0.0,'2',0.7188255190849304,0.7188255190849304,0.0,41.0
Fear,stimuli/29M_FE_O.BMP,stimuli/29M_FE_O.BMP,stimuli/24M_FE_O.BMP,stimuli/EmptyFrame.bmp,stimuli/RedFrame.bmp,1,Fear,Male,3,1,1.0,183.77622985839844,183.77622985839844,0.0,187.7714385986328,187.7714385986328,0.0,186.78501892089844,186.78501892089844,0.0,1.0,1.0,0.0,'1',0.6602922081947327,0.6602922081947327,0.0,42.0
Fear,stimuli/11F_FE_O.BMP,stimuli/10F_FE_O.BMP,stimuli/11F_FE_O.BMP,stimuli/EmptyFrame.bmp,stimuli/RedFrame.bmp,2,Fear,Female,3,1,1.0,187.7948760986328,187.7948760986328,0.0,191.78863525390625,191.78863525390625,0.0,190.8032989501953,190.8032989501953,0.0,1.0,1.0,0.0,'2',0.6190317869186401,0.6190317869186401,0.0,43.0
MatchFaces,stimuli/MatchFaces.bmp,stimuli/EmptyFace.bmp,stimuli/EmptyFace.bmp,stimuli/EmptyFrame.bmp,stimuli/EmptyFrame.bmp,Null,None,None,3,1,1.0,192.03253173828125,192.03253173828125,0.0,195.80648803710938,195.80648803710938,0.0,194.79864501953125,194.79864501953125,0.0,0.0,0.0,0.0,,,,,44.0
Happy,stimuli/19F_HA_O.BMP,stimuli/19F_HA_O.BMP,stimuli/18F_HA_O.BMP,stimuli/EmptyFrame.bmp,stimuli/RedFrame.bmp,1,Happy,Female,3,1,1.0,195.8939208984375,195.8939208984375,0.0,199.8213348388672,199.8213348388672,0.0,198.8407745361328,198.8407745361328,0.0,1.0,1.0,0.0,'1',0.7055476903915405,0.7055476903915405,0.0,45.0
Happy,stimuli/17F_HA_O.BMP,stimuli/16F_HA_O.BMP,stimuli/17F_HA_O.BMP,stimuli/EmptyFrame.bmp,stimuli/RedFrame.bmp,2,Happy,Female,3,1,1.0,199.84657287597656,199.84657287597656,0.0,203.8352508544922,203.8352508544922,0.0,202.85540771484375,202.85540771484375,0.0,1.0,1.0,0.0,'2',0.7014526724815369,0.7014526724815369,0.0,46.0
Happy,stimuli/43M_HA_O.BMP,stimuli/42M_HA_O.BMP,stimuli/43M_HA_O.BMP,stimuli/EmptyFrame.bmp,stimuli/RedFrame.bmp,2,Happy,Male,3,1,1.0,203.85968017578125,203.85968017578125,0.0,207.85556030273438,207.85556030273438,0.0,206.8597869873047,206.8597869873047,0.0,1.0,1.0,0.0,'2',0.8026831150054932,0.8026831150054932,0.0,47.0
Happy,stimuli/41M_HA_O.BMP,stimuli/41M_HA_O.BMP,stimuli/40M_HA_O.BMP,stimuli/EmptyFrame.bmp,stimuli/RedFrame.bmp,1,Happy,Male,3,1,1.0,207.880615234375,207.880615234375,0.0,211.8769073486328,211.8769073486328,0.0,210.88986206054688,210.88986206054688,0.0,1.0,1.0,0.0,'1',0.6574699878692627,0.6574699878692627,0.0,48.0
Happy,stimuli/15F_HA_O.BMP,stimuli/15F_HA_O.BMP,stimuli/14F_HA_O.BMP,stimuli/EmptyFrame.bmp,stimuli/RedFrame.bmp,1,Happy,Female,3,1,1.0,211.9009552001953,211.9009552001953,0.0,215.8998260498047,215.8998260498047,0.0,214.90521240234375,214.90521240234375,0.0,1.0,1.0,0.0,'1',0.8775920271873474,0.8775920271873474,0.0,49.0
Happy,stimuli/13F_HA_O.BMP,stimuli/13F_HA_O.BMP,stimuli/12F_HA_O.BMP,stimuli/EmptyFrame.bmp,stimuli/RedFrame.bmp,1,Happy,Female,3,1,1.0,215.92459106445312,215.92459106445312,0.0,219.9119415283203,219.9119415283203,0.0,218.9354705810547,218.9354705810547,0.0,1.0,1.0,0.0,'1',0.8372042775154114,0.8372042775154114,0.0,50.0
Happy,stimuli/39M_HA_O.BMP,stimuli/38M_HA_O.BMP,stimuli/39M_HA_O.BMP,stimuli/EmptyFrame.bmp,stimuli/RedFrame.bmp,2,Happy,Male,3,1,1.0,219.9330596923828,219.9330596923828,0.0,223.9345245361328,223.9345245361328,0.0,222.9479522705078,222.9479522705078,0.0,1.0,1.0,0.0,'2',0.6711760759353638,0.6711760759353638,0.0,51.0
Happy,stimuli/37M_HA_O.BMP,stimuli/37M_HA_O.BMP,stimuli/36M_HA_O.BMP,stimuli/EmptyFrame.bmp,stimuli/RedFrame.bmp,1,Happy,Male,3,1,1.0,223.96023559570312,223.96023559570312,0.0,227.94667053222656,227.94667053222656,0.0,226.95887756347656,226.95887756347656,0.0,1.0,1.0,0.0,'1',0.5891479849815369,0.5891479849815369,0.0,52.0
Happy,stimuli/35M_HA_O.BMP,stimuli/34M_HA_O.BMP,stimuli/35M_HA_O.BMP,stimuli/EmptyFrame.bmp,stimuli/RedFrame.bmp,2,Happy,Male,3,1,1.0,227.9695281982422,227.9695281982422,0.0,231.95579528808594,231.95579528808594,0.0,230.9724578857422,230.9724578857422,0.0,1.0,1.0,0.0,'2',0.8055226802825928,0.8055226802825928,0.0,53.0
Happy,stimuli/11F_HA_O.BMP,stimuli/10F_HA_O.BMP,stimuli/11F_HA_O.BMP,stimuli/EmptyFrame.bmp,stimuli/RedFrame.bmp,2,Happy,Female,3,1,1.0,231.97987365722656,231.97987365722656,0.0,235.96762084960938,235.96762084960938,0.0,234.9830322265625,234.9830322265625,0.0,1.0,1.0,0.0,'2',0.5999888777732849,0.5999888777732849,0.0,54.0
Match Shape,stimuli/MatchShapes.bmp,stimuli/EmptyFace.bmp,stimuli/EmptyFace.bmp,stimuli/EmptyFrame.bmp,stimuli/EmptyFrame.bmp,Null,None,None,3,1,1.0,235.9985809326172,235.9985809326172,0.0,239.97805786132812,239.97805786132812,0.0,238.98301696777344,238.98301696777344,0.0,0.0,0.0,0.0,,,,,55.0
Shape,stimuli/circle.bmp,stimuli/vertical.bmp,stimuli/circle.bmp,stimuli/EmptyFrame.bmp,stimuli/RedFrame.bmp,2,Shape,None,3,1,1.0,240.00941467285156,240.00941467285156,0.0,244.0011749267578,244.0011749267578,0.0,243.00405883789062,243.00405883789062,0.0,1.0,1.0,0.0,'2',0.6905843019485474,0.6905843019485474,0.0,56.0
Shape,stimuli/horizontal.bmp,stimuli/circle.bmp,stimuli/horizontal.bmp,stimuli/EmptyFrame.bmp,stimuli/RedFrame.bmp,2,Shape,None,3,1,1.0,244.0264892578125,244.0264892578125,0.0,248.02005004882812,248.02005004882812,0.0,247.02410888671875,247.02410888671875,0.0,1.0,1.0,0.0,'2',0.6301885843276978,0.6301885843276978,0.0,57.0
Shape,stimuli/vertical.bmp,stimuli/vertical.bmp,stimuli/horizontal.bmp,stimuli/EmptyFrame.bmp,stimuli/RedFrame.bmp,1,Shape,None,3,1,1.0,248.04249572753906,248.04249572753906,0.0,252.0333251953125,252.0333251953125,0.0,251.0480499267578,251.0480499267578,0.0,1.0,1.0,0.0,'1',0.4977644979953766,0.4977644979953766,0.0,58.0
Shape,stimuli/horizontal.bmp,stimuli/circle.bmp,stimuli/horizontal.bmp,stimuli/EmptyFrame.bmp,stimuli/RedFrame.bmp,2,Shape,None,3,1,1.0,252.06771850585938,252.06771850585938,0.0,256.05340576171875,256.05340576171875,0.0,255.06884765625,255.06884765625,0.0,1.0,1.0,0.0,'2',0.5280773043632507,0.5280773043632507,0.0,59.0
Shape,stimuli/horizontal.bmp,stimuli/horizontal.bmp,stimuli/vertical.bmp,stimuli/EmptyFrame.bmp,stimuli/RedFrame.bmp,1,Shape,None,3,1,1.0,256.07708740234375,256.07708740234375,0.0,260.06884765625,260.06884765625,0.0,259.0767517089844,259.0767517089844,0.0,1.0,1.0,0.0,'1',0.8243287205696106,0.8243287205696106,0.0,60.0
Shape,stimuli/vertical.bmp,stimuli/vertical.bmp,stimuli/circle.bmp,stimuli/EmptyFrame.bmp,stimuli/RedFrame.bmp,1,Shape,None,3,1,1.0,260.091552734375,260.091552734375,0.0,264.0913391113281,264.0913391113281,0.0,263.09857177734375,263.09857177734375,0.0,1.0,1.0,0.0,'1',0.5022860169410706,0.5022860169410706,0.0,61.0
Shape,stimuli/circle.bmp,stimuli/horizontal.bmp,stimuli/circle.bmp,stimuli/EmptyFrame.bmp,stimuli/RedFrame.bmp,2,Shape,None,3,1,1.0,264.11474609375,264.11474609375,0.0,268.1054382324219,268.1054382324219,0.0,267.125732421875,267.125732421875,0.0,1.0,1.0,0.0,'2',0.5853189826011658,0.5853189826011658,0.0,62.0
Shape,stimuli/circle.bmp,stimuli/vertical.bmp,stimuli/circle.bmp,stimuli/EmptyFrame.bmp,stimuli/RedFrame.bmp,2,Shape,None,3,1,1.0,268.1256103515625,268.1256103515625,0.0,272.1200866699219,272.1200866699219,0.0,271.1366271972656,271.1366271972656,0.0,1.0,1.0,0.0,'2',0.6427947878837585,0.6427947878837585,0.0,63.0
Shape,stimuli/vertical.bmp,stimuli/vertical.bmp,stimuli/horizontal.bmp,stimuli/EmptyFrame.bmp,stimuli/RedFrame.bmp,1,Shape,None,3,1,1.0,272.1448059082031,272.1448059082031,0.0,276.1384582519531,276.1384582519531,0.0,275.1526184082031,275.1526184082031,0.0,1.0,1.0,0.0,'1',0.8898705244064331,0.8898705244064331,0.0,64.0
Shape,stimuli/horizontal.bmp,stimuli/horizontal.bmp,stimuli/circle.bmp,stimuli/EmptyFrame.bmp,stimuli/RedFrame.bmp,1,Shape,None,3,1,1.0,276.16082763671875,276.16082763671875,0.0,280.1556396484375,280.1556396484375,0.0,279.16302490234375,279.16302490234375,0.0,1.0,1.0,0.0,'1',0.4686689078807831,0.4686689078807831,0.0,65.0
MatchFaces,stimuli/MatchFaces.bmp,stimuli/EmptyFace.bmp,stimuli/EmptyFace.bmp,stimuli/EmptyFrame.bmp,stimuli/EmptyFrame.bmp,Null,None,None,3,1,1.0,280.36907958984375,280.36907958984375,0.0,284.161376953125,284.161376953125,0.0,283.173583984375,283.173583984375,0.0,0.0,0.0,0.0,,,,,66.0
Anger,stimuli/42M_AN_O.BMP,stimuli/42M_AN_O.BMP,stimuli/43M_AN_O.BMP,stimuli/EmptyFrame.bmp,stimuli/RedFrame.bmp,1,Anger,Male,3,1,1.0,284.2703552246094,284.2703552246094,0.0,288.1797790527344,288.1797790527344,0.0,287.1971740722656,287.1971740722656,0.0,1.0,1.0,0.0,'1',0.5918833017349243,0.5918833017349243,0.0,67.0
Anger,stimuli/07F_AN_O.BMP,stimuli/07F_AN_O.BMP,stimuli/14F_AN_O.BMP,stimuli/EmptyFrame.bmp,stimuli/RedFrame.bmp,1,Anger,Female,3,1,1.0,288.2054443359375,288.2054443359375,0.0,292.1961364746094,292.1961364746094,0.0,291.2125549316406,291.2125549316406,0.0,1.0,1.0,0.0,'1',0.752325177192688,0.752325177192688,0.0,68.0
Anger,stimuli/40M_AN_O.BMP,stimuli/41M_AN_O.BMP,stimuli/40M_AN_O.BMP,stimuli/EmptyFrame.bmp,stimuli/RedFrame.bmp,2,Anger,Male,3,1,1.0,292.22198486328125,292.22198486328125,0.0,296.2053527832031,296.2053527832031,0.0,295.2291564941406,295.2291564941406,0.0,1.0,1.0,0.0,'2',0.6558712124824524,0.6558712124824524,0.0,69.0
Anger,stimuli/38M_AN_O.BMP,stimuli/39M_AN_O.BMP,stimuli/38M_AN_O.BMP,stimuli/EmptyFrame.bmp,stimuli/RedFrame.bmp,2,Anger,Male,3,1,1.0,296.22821044921875,296.22821044921875,0.0,300.2202453613281,300.2202453613281,0.0,299.2351989746094,299.2351989746094,0.0,1.0,1.0,0.0,'2',0.9165794849395752,0.9165794849395752,0.0,70.0
Anger,stimuli/08F_AN_O.BMP,stimuli/08F_AN_O.BMP,stimuli/13F_AN_O.BMP,stimuli/EmptyFrame.bmp,stimuli/RedFrame.bmp,1,Anger,Female,3,1,1.0,300.23980712890625,300.23980712890625,0.0,304.24786376953125,304.24786376953125,0.0,303.25653076171875,303.25653076171875,0.0,1.0,1.0,0.0,'1',0.6897950172424316,0.6897950172424316,0.0,71.0
Anger,stimuli/36M_AN_O.BMP,stimuli/37M_AN_O.BMP,stimuli/36M_AN_O.BMP,stimuli/EmptyFrame.bmp,stimuli/RedFrame.bmp,2,Anger,Male,3,1,1.0,304.2713623046875,304.2713623046875,0.0,308.2717590332031,308.2717590332031,0.0,307.2902526855469,307.2902526855469,0.0,1.0,1.0,0.0,'2',0.8845157027244568,0.8845157027244568,0.0,72.0
Anger,stimuli/09F_AN_O.BMP,stimuli/12F_AN_O.BMP,stimuli/09F_AN_O.BMP,stimuli/EmptyFrame.bmp,stimuli/RedFrame.bmp,2,Anger,Female,3,1,1.0,308.298828125,308.298828125,0.0,312.2844543457031,312.2844543457031,0.0,311.30316162109375,311.30316162109375,0.0,1.0,1.0,0.0,'2',0.6400495171546936,0.6400495171546936,0.0,73.0
Anger,stimuli/34M_AN_O.BMP,stimuli/35M_AN_O.BMP,stimuli/34M_AN_O.BMP,stimuli/EmptyFrame.bmp,stimuli/RedFrame.bmp,2,Anger,Male,3,1,1.0,312.3059997558594,312.3059997558594,0.0,316.3065185546875,316.3065185546875,0.0,315.3160095214844,315.3160095214844,0.0,1.0,1.0,0.0,'2',0.8263490796089172,0.8263490796089172,0.0,74.0
Anger,stimuli/10F_AN_O.BMP,stimuli/10F_AN_O.BMP,stimuli/11F_AN_O.BMP,stimuli/EmptyFrame.bmp,stimuli/RedFrame.bmp,1,Anger,Female,3,1,1.0,316.3289489746094,316.3289489746094,0.0,320.3184814453125,320.3184814453125,0.0,319.3375549316406,319.3375549316406,0.0,1.0,1.0,0.0,'1',0.5600513815879822,0.5600513815879822,0.0,75.0
Anger,stimuli/12F_AN_O.BMP,stimuli/12F_AN_O.BMP,stimuli/13F_AN_O.BMP,stimuli/EmptyFrame.bmp,stimuli/RedFrame.bmp,1,Anger,Female,3,1,1.0,320.3433532714844,320.3433532714844,0.0,324.33917236328125,324.33917236328125,0.0,323.3540344238281,323.3540344238281,0.0,1.0,1.0,0.0,'1',1.032768726348877,1.032768726348877,0.0,76.0
MatchFaces,stimuli/MatchFaces.bmp,stimuli/EmptyFace.bmp,stimuli/EmptyFace.bmp,stimuli/EmptyFrame.bmp,stimuli/EmptyFrame.bmp,Null,None,None,3,1,1.0,324.53216552734375,324.53216552734375,0.0,328.3445739746094,328.3445739746094,0.0,327.3546142578125,327.3546142578125,0.0,0.0,0.0,0.0,,,,,77.0
Happy,stimuli/20M_HA_O.BMP,stimuli/21M_HA_O.BMP,stimuli/20M_HA_O.BMP,stimuli/EmptyFrame.bmp,stimuli/RedFrame.bmp,2,Happy,Male,3,1,1.0,328.436767578125,328.436767578125,0.0,332.3559265136719,332.3559265136719,0.0,331.378173828125,331.378173828125,0.0,1.0,1.0,0.0,'2',0.838605523109436,0.838605523109436,0.0,78.0
Happy,stimuli/01F_HA_O.bmp,stimuli/01F_HA_O.bmp,stimuli/02F_HA_O.bmp,stimuli/EmptyFrame.bmp,stimuli/RedFrame.bmp,1,Happy,Female,3,1,1.0,332.379150390625,332.379150390625,0.0,336.3778991699219,336.3778991699219,0.0,335.385498046875,335.385498046875,0.0,1.0,1.0,0.0,'1',0.5670742988586426,0.5670742988586426,0.0,79.0
Happy,stimuli/22M_HA_O.BMP,stimuli/23M_HA_O.BMP,stimuli/22M_HA_O.BMP,stimuli/EmptyFrame.bmp,stimuli/RedFrame.bmp,2,Happy,Male,3,1,1.0,336.40533447265625,336.40533447265625,0.0,340.40338134765625,340.40338134765625,0.0,339.4106140136719,339.4106140136719,0.0,1.0,1.0,0.0,'2',0.6577546000480652,0.6577546000480652,0.0,80.0
Happy,stimuli/24M_HA_O.BMP,stimuli/24M_HA_O.BMP,stimuli/25M_HA_O.BMP,stimuli/EmptyFrame.bmp,stimuli/RedFrame.bmp,1,Happy,Male,3,1,1.0,340.43426513671875,340.43426513671875,0.0,344.4225769042969,344.4225769042969,0.0,343.42938232421875,343.42938232421875,0.0,1.0,1.0,0.0,'1',0.9048274159431458,0.9048274159431458,0.0,81.0
Happy,stimuli/03F_HA_O.bmp,stimuli/05F_HA_O.bmp,stimuli/03F_HA_O.bmp,stimuli/EmptyFrame.bmp,stimuli/RedFrame.bmp,2,Happy,Female,3,1,1.0,344.4442138671875,344.4442138671875,0.0,348.43994140625,348.43994140625,0.0,347.45574951171875,347.45574951171875,0.0,1.0,1.0,0.0,'2',0.6670867800712585,0.6670867800712585,0.0,82.0
Happy,stimuli/26M_HA_O.BMP,stimuli/26M_HA_O.BMP,stimuli/27M_HA_O.BMP,stimuli/EmptyFrame.bmp,stimuli/RedFrame.bmp,1,Happy,Male,3,1,1.0,348.4609375,348.4609375,0.0,352.45452880859375,352.45452880859375,0.0,351.4681091308594,351.4681091308594,0.0,1.0,1.0,0.0,'1',0.5920963883399963,0.5920963883399963,0.0,83.0
Happy,stimuli/06F_HA_O.bmp,stimuli/07F_HA_O.BMP,stimuli/06F_HA_O.bmp,stimuli/EmptyFrame.bmp,stimuli/RedFrame.bmp,2,Happy,Female,3,1,1.0,352.48162841796875,352.48162841796875,0.0,356.4761962890625,356.4761962890625,0.0,355.4841613769531,355.4841613769531,0.0,1.0,1.0,0.0,'2',0.6818068027496338,0.6818068027496338,0.0,84.0
Happy,stimuli/08F_HA_O.BMP,stimuli/08F_HA_O.BMP,stimuli/09F_HA_O.BMP,stimuli/EmptyFrame.bmp,stimuli/RedFrame.bmp,1,Happy,Female,3,1,1.0,356.4970703125,356.4970703125,0.0,360.4956359863281,360.4956359863281,0.0,359.505126953125,359.505126953125,0.0,1.0,1.0,0.0,'1',0.7375969886779785,0.7375969886779785,0.0,85.0
Happy,stimuli/28M_HA_O.BMP,stimuli/29M_HA_O.BMP,stimuli/28M_HA_O.BMP,stimuli/EmptyFrame.bmp,stimuli/RedFrame.bmp,2,Happy,Male,3,1,1.0,360.5214538574219,360.5214538574219,0.0,364.5045471191406,364.5045471191406,0.0,363.52496337890625,363.52496337890625,0.0,1.0,1.0,0.0,'2',0.6602178812026978,0.6602178812026978,0.0,86.0
Happy,stimuli/10F_HA_O.BMP,stimuli/10F_HA_O.BMP,stimuli/06F_HA_O.bmp,stimuli/EmptyFrame.bmp,stimuli/RedFrame.bmp,1,Happy,Female,3,1,1.0,364.52508544921875,364.52508544921875,0.0,368.5258483886719,368.5258483886719,0.0,367.5414733886719,367.5414733886719,0.0,1.0,1.0,0.0,'1',0.7647259831428528,0.7647259831428528,0.0,87.0
MatchFaces,stimuli/MatchFaces.bmp,stimuli/EmptyFace.bmp,stimuli/EmptyFace.bmp,stimuli/EmptyFrame.bmp,stimuli/EmptyFrame.bmp,Null,None,None,3,1,1.0,368.7532653808594,368.7532653808594,0.0,372.5301818847656,372.5301818847656,0.0,371.5365905761719,371.5365905761719,0.0,0.0,0.0,0.0,,,,,88.0
Neutral,stimuli/07F_NE_C.BMP,stimuli/07F_NE_C.BMP,stimuli/14F_NE_C.BMP,stimuli/EmptyFrame.bmp,stimuli/RedFrame.bmp,1,Neutral,Female,3,1,1.0,372.5983581542969,372.5983581542969,0.0,376.550048828125,376.550048828125,0.0,375.566650390625,375.566650390625,0.0,1.0,1.0,0.0,'1',0.557203471660614,0.557203471660614,0.0,89.0
Neutral,stimuli/25M_NE_C.BMP,stimuli/29M_NE_C.BMP,stimuli/25M_NE_C.BMP,stimuli/EmptyFrame.bmp,stimuli/RedFrame.bmp,2,Neutral,Male,3,1,1.0,376.57867431640625,376.57867431640625,0.0,380.5673522949219,380.5673522949219,0.0,379.5906677246094,379.5906677246094,0.0,1.0,1.0,0.0,'2',0.6242629289627075,0.6242629289627075,0.0,90.0
Neutral,stimuli/26M_NE_C.BMP,stimuli/26M_NE_C.BMP,stimuli/28M_NE_C.BMP,stimuli/EmptyFrame.bmp,stimuli/RedFrame.bmp,1,Neutral,Male,3,1,1.0,380.59271240234375,380.59271240234375,0.0,384.5854797363281,384.5854797363281,0.0,383.6012268066406,383.6012268066406,0.0,1.0,1.0,0.0,'1',0.5918561816215515,0.5918561816215515,0.0,91.0
Neutral,stimuli/08F_NE_C.BMP,stimuli/13F_NE_C.BMP,stimuli/08F_NE_C.BMP,stimuli/EmptyFrame.bmp,stimuli/RedFrame.bmp,2,Neutral,Female,3,1,1.0,384.60980224609375,384.60980224609375,0.0,388.5999755859375,388.5999755859375,0.0,387.6148376464844,387.6148376464844,0.0,1.0,1.0,0.0,'2',0.7615994811058044,0.7615994811058044,0.0,92.0
Neutral,stimuli/09F_NE_C.BMP,stimuli/09F_NE_C.BMP,stimuli/12F_NE_C.BMP,stimuli/EmptyFrame.bmp,stimuli/RedFrame.bmp,1,Neutral,Female,3,1,1.0,388.62628173828125,388.62628173828125,0.0,392.62286376953125,392.62286376953125,0.0,391.6336364746094,391.6336364746094,0.0,1.0,1.0,0.0,'1',0.556902289390564,0.556902289390564,0.0,93.0
Neutral,stimuli/27M_NE_C.BMP,stimuli/26M_NE_C.BMP,stimuli/27M_NE_C.BMP,stimuli/EmptyFrame.bmp,stimuli/RedFrame.bmp,2,Neutral,Male,3,1,1.0,392.6464538574219,392.6464538574219,0.0,396.6436767578125,396.6436767578125,0.0,395.6525573730469,395.6525573730469,0.0,1.0,1.0,0.0,'2',0.6332027912139893,0.6332027912139893,0.0,94.0
Neutral,stimuli/28M_NE_C.BMP,stimuli/28M_NE_C.BMP,stimuli/25M_NE_C.BMP,stimuli/EmptyFrame.bmp,stimuli/RedFrame.bmp,1,Neutral,Male,3,1,1.0,396.6665954589844,396.6665954589844,0.0,400.6576232910156,400.6576232910156,0.0,399.6795654296875,399.6795654296875,0.0,1.0,1.0,0.0,'1',0.576137125492096,0.576137125492096,0.0,95.0
Neutral,stimuli/10F_NE_C.BMP,stimuli/11F_NE_C.BMP,stimuli/10F_NE_C.BMP,stimuli/EmptyFrame.bmp,stimuli/RedFrame.bmp,2,Neutral,Female,3,1,1.0,400.6800537109375,400.6800537109375,0.0,404.6687316894531,404.6687316894531,0.0,403.6957092285156,403.6957092285156,0.0,1.0,1.0,0.0,'2',0.4983817934989929,0.4983817934989929,0.0,96.0
Neutral,stimuli/29M_NE_C.BMP,stimuli/29M_NE_C.BMP,stimuli/24M_NE_C.BMP,stimuli/EmptyFrame.bmp,stimuli/RedFrame.bmp,1,Neutral,Male,3,1,1.0,404.6956787109375,404.6956787109375,0.0,408.6945495605469,408.6945495605469,0.0,407.7093505859375,407.7093505859375,0.0,1.0,1.0,0.0,'1',0.48118069767951965,0.48118069767951965,0.0,97.0
Neutral,stimuli/11F_NE_C.BMP,stimuli/10F_NE_C.BMP,stimuli/11F_NE_C.BMP,stimuli/EmptyFrame.bmp,stimuli/RedFrame.bmp,2,Neutral,Female,3,1,1.0,408.7221984863281,408.7221984863281,0.0,412.71240234375,412.71240234375,0.0,411.73455810546875,411.73455810546875,0.0,1.0,1.0,0.0,'2',0.4587455093860626,0.4587455093860626,0.0,98.0
MatchFaces,stimuli/MatchFaces.bmp,stimuli/EmptyFace.bmp,stimuli/EmptyFace.bmp,stimuli/EmptyFrame.bmp,stimuli/EmptyFrame.bmp,Null,None,None,3,1,1.0,412.9704284667969,412.9704284667969,0.0,416.71319580078125,416.71319580078125,0.0,415.7249450683594,415.7249450683594,0.0,0.0,0.0,0.0,,,,,99.0
Fear,stimuli/23M_FE_O.BMP,stimuli/23M_FE_O.BMP,stimuli/24M_FE_O.BMP,stimuli/EmptyFrame.bmp,stimuli/RedFrame.bmp,1,Fear,Male,3,1,1.0,416.8039855957031,416.8039855957031,0.0,420.7260437011719,420.7260437011719,0.0,419.7375183105469,419.7375183105469,0.0,1.0,1.0,0.0,'1',0.631390392780304,0.631390392780304,0.0,100.0
Fear,stimuli/19F_FE_O.BMP,stimuli/18F_FE_O.BMP,stimuli/19F_FE_O.BMP,stimuli/EmptyFrame.bmp,stimuli/RedFrame.bmp,2,Fear,Female,3,1,1.0,420.75244140625,420.75244140625,0.0,424.7381896972656,424.7381896972656,0.0,423.76953125,423.76953125,0.0,1.0,1.0,0.0,'2',0.6897405982017517,0.6897405982017517,0.0,101.0
Fear,stimuli/17F_FE_O.BMP,stimuli/17F_FE_O.BMP,stimuli/16F_FE_O.BMP,stimuli/EmptyFrame.bmp,stimuli/RedFrame.bmp,1,Fear,Female,3,1,1.0,424.7660217285156,424.7660217285156,0.0,428.75909423828125,428.75909423828125,0.0,427.7668151855469,427.7668151855469,0.0,1.0,1.0,0.0,'1',0.5662015080451965,0.5662015080451965,0.0,102.0
Fear,stimuli/15F_FE_O.BMP,stimuli/18F_FE_O.BMP,stimuli/15F_FE_O.BMP,stimuli/EmptyFrame.bmp,stimuli/RedFrame.bmp,2,Fear,Female,3,1,1.0,428.785400390625,428.785400390625,0.0,432.7683410644531,432.7683410644531,0.0,431.78936767578125,431.78936767578125,0.0,1.0,1.0,0.0,'2',0.711942195892334,0.711942195892334,0.0,103.0
Fear,stimuli/21M_FE_O.BMP,stimuli/21M_FE_O.BMP,stimuli/22M_FE_O.BMP,stimuli/EmptyFrame.bmp,stimuli/RedFrame.bmp,1,Fear,Male,3,1,1.0,432.7922058105469,432.7922058105469,0.0,436.77874755859375,436.77874755859375,0.0,435.7994079589844,435.7994079589844,0.0,1.0,1.0,0.0,'1',0.5506882071495056,0.5506882071495056,0.0,104.0
Fear,stimuli/29M_FE_O.BMP,stimuli/30M_FE_O.BMP,stimuli/29M_FE_O.BMP,stimuli/EmptyFrame.bmp,stimuli/RedFrame.bmp,2,Fear,Male,3,1,1.0,436.8020324707031,436.8020324707031,0.0,440.80633544921875,440.80633544921875,0.0,439.8171081542969,439.8171081542969,0.0,1.0,1.0,0.0,'2',0.5561472177505493,0.5561472177505493,0.0,105.0
Fear,stimuli/31M_FE_O.BMP,stimuli/31M_FE_O.BMP,stimuli/38M_FE_O.BMP,stimuli/EmptyFrame.bmp,stimuli/RedFrame.bmp,1,Fear,Male,3,1,1.0,440.83282470703125,440.83282470703125,0.0,444.8193359375,444.8193359375,0.0,443.8374328613281,443.8374328613281,0.0,1.0,1.0,0.0,'1',0.5433359742164612,0.5433359742164612,0.0,106.0
Fear,stimuli/09F_FE_O.BMP,stimuli/07F_FE_O.BMP,stimuli/09F_FE_O.BMP,stimuli/EmptyFrame.bmp,stimuli/RedFrame.bmp,2,Fear,Female,3,1,1.0,444.84564208984375,444.84564208984375,0.0,448.8345031738281,448.8345031738281,0.0,447.84466552734375,447.84466552734375,0.0,1.0,1.0,0.0,'2',0.6839054226875305,0.6839054226875305,0.0,107.0
Fear,stimuli/11F_FE_O.BMP,stimuli/12F_FE_O.BMP,stimuli/11F_FE_O.BMP,stimuli/EmptyFrame.bmp,stimuli/RedFrame.bmp,2,Fear,Female,3,1,1.0,448.859130859375,448.859130859375,0.0,452.8523254394531,452.8523254394531,0.0,451.8690490722656,451.8690490722656,0.0,1.0,1.0,0.0,'2',0.5249994993209839,0.5249994993209839,0.0,108.0
Fear,stimuli/34M_FE_O.BMP,stimuli/34M_FE_O.BMP,stimuli/33M_FE_O.BMP,stimuli/EmptyFrame.bmp,stimuli/RedFrame.bmp,1,Fear,Male,3,1,1.0,452.8720703125,452.8720703125,0.0,456.86822509765625,456.86822509765625,0.0,455.8782043457031,455.8782043457031,0.0,1.0,1.0,0.0,'1',0.6710000038146973,0.6710000038146973,0.0,109.0

extraInfo
participant,sub002
session,001
date,2025_May_09_0904
expName,HaririTask_Ver1
psychopyVersion,3.0.1
frameRate,None
