TrialType,Top,Left,Right,EmptyFrame,SelectedFrame,Correct,Emotion,Gender,TrialLength,FixationLength,n,GCFaceStartTime_mean,GCFaceStartTime_raw,GCFaceStartTime_std,GCPostFaceFixationEndTime_mean,GCPostFaceFixationEndTime_raw,GCPostFaceFixationEndTime_std,GCPostFaceFixationStartTime_mean,GCPostFaceFixationStartTime_raw,GCPostFaceFixationStartTime_std,key_resp_trial.corr_mean,key_resp_trial.corr_raw,key_resp_trial.corr_std,key_resp_trial.keys_raw,key_resp_trial.rt_mean,key_resp_trial.rt_raw,key_resp_trial.rt_std,order
MatchFaces,stimuli/MatchFaces.bmp,stimuli/EmptyFace.bmp,stimuli/EmptyFace.bmp,stimuli/EmptyFrame.bmp,stimuli/EmptyFrame.bmp,Null,None,None,3,1,1.0,15.295356750488281,15.295356750488281,0.0,19.053146362304688,19.053146362304688,0.0,18.05847930908203,18.05847930908203,0.0,0.0,0.0,0.0,,,,,0.0
Anger,stimuli/01F_AN_O.bmp,stimuli/19F_AN_O.BMP,stimuli/01F_AN_O.bmp,stimuli/EmptyFrame.bmp,stimuli/RedFrame.bmp,2,Anger,Female,3,1,1.0,19.257017135620117,19.257017135620117,0.0,23.065401077270508,23.065401077270508,0.0,22.087589263916016,22.087589263916016,0.0,1.0,1.0,0.0,'2',1.990304946899414,1.990304946899414,0.0,1.0
Anger,stimuli/02f_an_o.bmp,stimuli/18F_AN_O.BMP,stimuli/02f_an_o.bmp,stimuli/EmptyFrame.bmp,stimuli/RedFrame.bmp,2,Anger,Female,3,1,1.0,23.094459533691406,23.094459533691406,0.0,27.078144073486328,27.078144073486328,0.0,26.088001251220703,26.088001251220703,0.0,1.0,1.0,0.0,'2',1.351262092590332,1.351262092590332,0.0,2.0
Anger,stimuli/20M_AN_O.BMP,stimuli/34M_AN_O.BMP,stimuli/20M_AN_O.BMP,stimuli/EmptyFrame.bmp,stimuli/RedFrame.bmp,2,Anger,Male,3,1,1.0,27.100505828857422,27.100505828857422,0.0,31.104480743408203,31.104480743408203,0.0,30.11083221435547,30.11083221435547,0.0,1.0,1.0,0.0,'2',1.2899539470672607,1.2899539470672607,0.0,3.0
Anger,stimuli/03F_AN_O.bmp,stimuli/03F_AN_O.bmp,stimuli/17F_AN_O.BMP,stimuli/EmptyFrame.bmp,stimuli/RedFrame.bmp,1,Anger,Female,3,1,1.0,31.132001876831055,31.132001876831055,0.0,35.126895904541016,35.126895904541016,0.0,34.13124084472656,34.13124084472656,0.0,1.0,1.0,0.0,'1',1.0606987476348877,1.0606987476348877,0.0,4.0
Anger,stimuli/21M_AN_O.BMP,stimuli/21M_AN_O.BMP,stimuli/33M_AN_O.BMP,stimuli/EmptyFrame.bmp,stimuli/RedFrame.bmp,1,Anger,Male,3,1,1.0,35.15938949584961,35.15938949584961,0.0,39.1472282409668,39.1472282409668,0.0,38.16099548339844,38.16099548339844,0.0,1.0,1.0,0.0,'1',0.9460564851760864,0.9460564851760864,0.0,5.0
Anger,stimuli/22M_AN_O.BMP,stimuli/32M_AN_O.BMP,stimuli/22M_AN_O.BMP,stimuli/EmptyFrame.bmp,stimuli/RedFrame.bmp,2,Anger,Male,3,1,1.0,39.21015548706055,39.21015548706055,0.0,43.164207458496094,43.164207458496094,0.0,42.18152618408203,42.18152618408203,0.0,1.0,1.0,0.0,'2',0.8981425166130066,0.8981425166130066,0.0,6.0
Anger,stimuli/23M_AN_O.BMP,stimuli/23M_AN_O.BMP,stimuli/31M_AN_O.BMP,stimuli/EmptyFrame.bmp,stimuli/RedFrame.bmp,1,Anger,Male,3,1,1.0,43.19596862792969,43.19596862792969,0.0,47.179264068603516,47.179264068603516,0.0,46.197052001953125,46.197052001953125,0.0,1.0,1.0,0.0,'1',1.0081325769424438,1.0081325769424438,0.0,7.0
Anger,stimuli/05F_AN_O.bmp,stimuli/05F_AN_O.bmp,stimuli/16F_AN_O.BMP,stimuli/EmptyFrame.bmp,stimuli/RedFrame.bmp,1,Anger,Female,3,1,1.0,47.209449768066406,47.209449768066406,0.0,51.19087600708008,51.19087600708008,0.0,50.21223449707031,50.21223449707031,0.0,1.0,1.0,0.0,'1',0.9319819211959839,0.9319819211959839,0.0,8.0
Anger,stimuli/06F_AN_O.bmp,stimuli/15F_AN_O.BMP,stimuli/06F_AN_O.bmp,stimuli/EmptyFrame.bmp,stimuli/RedFrame.bmp,2,Anger,Female,3,1,1.0,51.26198959350586,51.26198959350586,0.0,55.208770751953125,55.208770751953125,0.0,54.22385787963867,54.22385787963867,0.0,1.0,1.0,0.0,'2',1.0217963457107544,1.0217963457107544,0.0,9.0
Anger,stimuli/24M_AN_O.BMP,stimuli/24M_AN_O.BMP,stimuli/30M_AN_O.BMP,stimuli/EmptyFrame.bmp,stimuli/RedFrame.bmp,1,Anger,Male,3,1,1.0,55.237518310546875,55.237518310546875,0.0,59.22388458251953,59.22388458251953,0.0,58.234920501708984,58.234920501708984,0.0,1.0,1.0,0.0,'1',1.0851198434829712,1.0851198434829712,0.0,10.0
MatchShape,stimuli/MatchShapes.bmp,stimuli/EmptyFace.bmp,stimuli/EmptyFace.bmp,stimuli/EmptyFrame.bmp,stimuli/EmptyFrame.bmp,Null,None,None,3,1,1.0,59.25203323364258,59.25203323364258,0.0,63.23279571533203,63.23279571533203,0.0,62.236183166503906,62.236183166503906,0.0,0.0,0.0,0.0,,,,,11.0
Shape,stimuli/horizontal.bmp,stimuli/horizontal.bmp,stimuli/circle.bmp,stimuli/EmptyFrame.bmp,stimuli/RedFrame.bmp,1,Shape,None,3,1,1.0,63.2716178894043,63.2716178894043,0.0,67.25470733642578,67.25470733642578,0.0,66.27385711669922,66.27385711669922,0.0,1.0,1.0,0.0,'1',0.9174605011940002,0.9174605011940002,0.0,12.0
Shape,stimuli/vertical.bmp,stimuli/horizontal.bmp,stimuli/vertical.bmp,stimuli/EmptyFrame.bmp,stimuli/RedFrame.bmp,2,Shape,None,3,1,1.0,67.28030395507812,67.28030395507812,0.0,71.27254486083984,71.27254486083984,0.0,70.28816986083984,70.28816986083984,0.0,1.0,1.0,0.0,'2',1.0227916240692139,1.0227916240692139,0.0,13.0
Shape,stimuli/horizontal.bmp,stimuli/horizontal.bmp,stimuli/vertical.bmp,stimuli/EmptyFrame.bmp,stimuli/RedFrame.bmp,1,Shape,None,3,1,1.0,71.2947998046875,71.2947998046875,0.0,75.29496002197266,75.29496002197266,0.0,74.311767578125,74.311767578125,0.0,1.0,1.0,0.0,'1',0.7923238277435303,0.7923238277435303,0.0,14.0
Shape,stimuli/horizontal.bmp,stimuli/circle.bmp,stimuli/horizontal.bmp,stimuli/EmptyFrame.bmp,stimuli/RedFrame.bmp,2,Shape,None,3,1,1.0,75.31939697265625,75.31939697265625,0.0,79.30479431152344,79.30479431152344,0.0,78.31706237792969,78.31706237792969,0.0,1.0,1.0,0.0,'2',0.8215599060058594,0.8215599060058594,0.0,15.0
Shape,stimuli/circle.bmp,stimuli/circle.bmp,stimuli/vertical.bmp,stimuli/EmptyFrame.bmp,stimuli/RedFrame.bmp,1,Shape,None,3,1,1.0,79.32777404785156,79.32777404785156,0.0,83.32498931884766,83.32498931884766,0.0,82.34645080566406,82.34645080566406,0.0,1.0,1.0,0.0,'1',0.8399484157562256,0.8399484157562256,0.0,16.0
Shape,stimuli/circle.bmp,stimuli/circle.bmp,stimuli/horizontal.bmp,stimuli/EmptyFrame.bmp,stimuli/RedFrame.bmp,1,Shape,None,3,1,1.0,83.34770202636719,83.34770202636719,0.0,87.33777618408203,87.33777618408203,0.0,86.3563461303711,86.3563461303711,0.0,1.0,1.0,0.0,'1',0.8143522143363953,0.8143522143363953,0.0,17.0
Shape,stimuli/vertical.bmp,stimuli/circle.bmp,stimuli/vertical.bmp,stimuli/EmptyFrame.bmp,stimuli/RedFrame.bmp,2,Shape,None,3,1,1.0,87.36215209960938,87.36215209960938,0.0,91.35972595214844,91.35972595214844,0.0,90.37249755859375,90.37249755859375,0.0,1.0,1.0,0.0,'2',0.8393973708152771,0.8393973708152771,0.0,18.0
Shape,stimuli/circle.bmp,stimuli/vertical.bmp,stimuli/circle.bmp,stimuli/EmptyFrame.bmp,stimuli/RedFrame.bmp,2,Shape,None,3,1,1.0,91.38264465332031,91.38264465332031,0.0,95.38250732421875,95.38250732421875,0.0,94.39033508300781,94.39033508300781,0.0,1.0,1.0,0.0,'2',0.9967502951622009,0.9967502951622009,0.0,19.0
Shape,stimuli/vertical.bmp,stimuli/horizontal.bmp,stimuli/vertical.bmp,stimuli/EmptyFrame.bmp,stimuli/RedFrame.bmp,2,Shape,None,3,1,1.0,95.40276336669922,95.40276336669922,0.0,99.39389038085938,99.39389038085938,0.0,98.40834045410156,98.40834045410156,0.0,1.0,1.0,0.0,'2',1.2121049165725708,1.2121049165725708,0.0,20.0
Shape,stimuli/vertical.bmp,stimuli/vertical.bmp,stimuli/circle.bmp,stimuli/EmptyFrame.bmp,stimuli/RedFrame.bmp,1,Shape,None,3,1,1.0,99.41673278808594,99.41673278808594,0.0,103.40885162353516,103.40885162353516,0.0,102.42589569091797,102.42589569091797,0.0,1.0,1.0,0.0,'1',0.824928879737854,0.824928879737854,0.0,21.0
MatchFaces,stimuli/MatchFaces.bmp,stimuli/EmptyFace.bmp,stimuli/EmptyFace.bmp,stimuli/EmptyFrame.bmp,stimuli/EmptyFrame.bmp,Null,None,None,3,1,1.0,103.70925903320312,103.70925903320312,0.0,107.41287231445312,107.41287231445312,0.0,106.41940307617188,106.41940307617188,0.0,0.0,0.0,0.0,,,,,22.0
Neutral,stimuli/20M_NE_C.BMP,stimuli/21M_NE_C.BMP,stimuli/20M_NE_C.BMP,stimuli/EmptyFrame.bmp,stimuli/RedFrame.bmp,2,Neutral,Male,3,1,1.0,107.59710693359375,107.59710693359375,0.0,111.4412612915039,111.4412612915039,0.0,110.4422378540039,110.4422378540039,0.0,1.0,1.0,0.0,'2',2.3710360527038574,2.3710360527038574,0.0,23.0
Neutral,stimuli/01F_NE_C.bmp,stimuli/01F_NE_C.bmp,stimuli/02F_NE_C.bmp,stimuli/EmptyFrame.bmp,stimuli/RedFrame.bmp,1,Neutral,Female,3,1,1.0,111.51055908203125,111.51055908203125,0.0,115.45703125,115.45703125,0.0,114.47505950927734,114.47505950927734,0.0,1.0,1.0,0.0,'1',1.1116870641708374,1.1116870641708374,0.0,24.0
Neutral,stimuli/22M_NE_C.BMP,stimuli/23M_NE_C.BMP,stimuli/22M_NE_C.BMP,stimuli/EmptyFrame.bmp,stimuli/RedFrame.bmp,2,Neutral,Male,3,1,1.0,115.49005889892578,115.49005889892578,0.0,119.47774505615234,119.47774505615234,0.0,118.49876403808594,118.49876403808594,0.0,1.0,1.0,0.0,'2',1.27687406539917,1.27687406539917,0.0,25.0
Neutral,stimuli/24M_NE_C.BMP,stimuli/24M_NE_C.BMP,stimuli/25M_NE_C.BMP,stimuli/EmptyFrame.bmp,stimuli/RedFrame.bmp,1,Neutral,Male,3,1,1.0,119.53324890136719,119.53324890136719,0.0,123.50593566894531,123.50593566894531,0.0,122.52481842041016,122.52481842041016,0.0,1.0,1.0,0.0,'1',1.737358808517456,1.737358808517456,0.0,26.0
Neutral,stimuli/03F_NE_C.bmp,stimuli/05F_NE_C.bmp,stimuli/03F_NE_C.bmp,stimuli/EmptyFrame.bmp,stimuli/RedFrame.bmp,2,Neutral,Female,3,1,1.0,123.53549194335938,123.53549194335938,0.0,127.52650451660156,127.52650451660156,0.0,126.53839111328125,126.53839111328125,0.0,1.0,1.0,0.0,'2',1.232770562171936,1.232770562171936,0.0,27.0
Neutral,stimuli/26M_NE_C.BMP,stimuli/26M_NE_C.BMP,stimuli/27M_NE_C.BMP,stimuli/EmptyFrame.bmp,stimuli/RedFrame.bmp,1,Neutral,Male,3,1,1.0,127.55582427978516,127.55582427978516,0.0,131.54660034179688,131.54660034179688,0.0,130.55502319335938,130.55502319335938,0.0,1.0,1.0,0.0,'1',0.9456750750541687,0.9456750750541687,0.0,28.0
Neutral,stimuli/06F_NE_C.bmp,stimuli/07F_NE_C.BMP,stimuli/06F_NE_C.bmp,stimuli/EmptyFrame.bmp,stimuli/RedFrame.bmp,2,Neutral,Female,3,1,1.0,131.57200622558594,131.57200622558594,0.0,135.56004333496094,135.56004333496094,0.0,134.57830810546875,134.57830810546875,0.0,1.0,1.0,0.0,'2',1.115296483039856,1.115296483039856,0.0,29.0
Neutral,stimuli/08F_NE_C.BMP,stimuli/08F_NE_C.BMP,stimuli/09F_NE_C.BMP,stimuli/EmptyFrame.bmp,stimuli/RedFrame.bmp,1,Neutral,Female,3,1,1.0,135.5883026123047,135.5883026123047,0.0,139.57969665527344,139.57969665527344,0.0,138.5845489501953,138.5845489501953,0.0,1.0,1.0,0.0,'1',1.2343988418579102,1.2343988418579102,0.0,30.0
Neutral,stimuli/28M_NE_C.BMP,stimuli/29M_NE_C.BMP,stimuli/28M_NE_C.BMP,stimuli/EmptyFrame.bmp,stimuli/RedFrame.bmp,2,Neutral,Male,3,1,1.0,139.6038360595703,139.6038360595703,0.0,143.59010314941406,143.59010314941406,0.0,142.61328125,142.61328125,0.0,1.0,1.0,0.0,'2',0.9993265271186829,0.9993265271186829,0.0,31.0
Neutral,stimuli/10F_NE_C.BMP,stimuli/10F_NE_C.BMP,stimuli/06F_NE_C.bmp,stimuli/EmptyFrame.bmp,stimuli/RedFrame.bmp,1,Neutral,Female,3,1,1.0,143.6180877685547,143.6180877685547,0.0,147.6127166748047,147.6127166748047,0.0,146.66004943847656,146.66004943847656,0.0,1.0,1.0,0.0,'1',0.8855819702148438,0.8855819702148438,0.0,32.0
MatchFaces,stimuli/MatchFaces.bmp,stimuli/EmptyFace.bmp,stimuli/EmptyFace.bmp,stimuli/EmptyFrame.bmp,stimuli/EmptyFrame.bmp,Null,None,None,3,1,1.0,147.9863739013672,147.9863739013672,0.0,151.62213134765625,151.62213134765625,0.0,150.6239776611328,150.6239776611328,0.0,0.0,0.0,0.0,,,,,33.0
Fear,stimuli/07F_FE_O.BMP,stimuli/07F_FE_O.BMP,stimuli/14F_FE_O.BMP,stimuli/EmptyFrame.bmp,stimuli/RedFrame.bmp,1,Fear,Female,3,1,1.0,151.72869873046875,151.72869873046875,0.0,155.64768981933594,155.64768981933594,0.0,154.6499481201172,154.6499481201172,0.0,1.0,1.0,0.0,'1',1.624428629875183,1.624428629875183,0.0,34.0
Fear,stimuli/25M_FE_O.BMP,stimuli/29M_FE_O.BMP,stimuli/25M_FE_O.BMP,stimuli/EmptyFrame.bmp,stimuli/RedFrame.bmp,2,Fear,Male,3,1,1.0,155.68431091308594,155.68431091308594,0.0,159.66490173339844,159.66490173339844,0.0,158.67262268066406,158.67262268066406,0.0,1.0,1.0,0.0,'2',1.1347455978393555,1.1347455978393555,0.0,35.0
Fear,stimuli/26M_FE_O.BMP,stimuli/26M_FE_O.BMP,stimuli/28M_FE_O.BMP,stimuli/EmptyFrame.bmp,stimuli/RedFrame.bmp,1,Fear,Male,3,1,1.0,159.691650390625,159.691650390625,0.0,163.67788696289062,163.67788696289062,0.0,162.69351196289062,162.69351196289062,0.0,1.0,1.0,0.0,'1',1.067740797996521,1.067740797996521,0.0,36.0
Fear,stimuli/08F_FE_O.BMP,stimuli/13F_FE_O.BMP,stimuli/08F_FE_O.BMP,stimuli/EmptyFrame.bmp,stimuli/RedFrame.bmp,2,Fear,Female,3,1,1.0,163.7042999267578,163.7042999267578,0.0,167.69192504882812,167.69192504882812,0.0,166.7095947265625,166.7095947265625,0.0,1.0,1.0,0.0,'2',1.0474177598953247,1.0474177598953247,0.0,37.0
Fear,stimuli/09F_FE_O.BMP,stimuli/09F_FE_O.BMP,stimuli/12F_FE_O.BMP,stimuli/EmptyFrame.bmp,stimuli/RedFrame.bmp,1,Fear,Female,3,1,1.0,167.71827697753906,167.71827697753906,0.0,171.7162322998047,171.7162322998047,0.0,170.73509216308594,170.73509216308594,0.0,1.0,1.0,0.0,'1',0.7598512768745422,0.7598512768745422,0.0,38.0
Fear,stimuli/27M_FE_O.BMP,stimuli/26M_FE_O.BMP,stimuli/27M_FE_O.BMP,stimuli/EmptyFrame.bmp,stimuli/RedFrame.bmp,2,Fear,Male,3,1,1.0,171.74697875976562,171.74697875976562,0.0,175.73777770996094,175.73777770996094,0.0,174.75857543945312,174.75857543945312,0.0,1.0,1.0,0.0,'2',0.993434727191925,0.993434727191925,0.0,39.0
Fear,stimuli/28M_FE_O.BMP,stimuli/28M_FE_O.BMP,stimuli/25M_FE_O.BMP,stimuli/EmptyFrame.bmp,stimuli/RedFrame.bmp,1,Fear,Male,3,1,1.0,175.7621307373047,175.7621307373047,0.0,179.75608825683594,179.75608825683594,0.0,178.7791748046875,178.7791748046875,0.0,1.0,1.0,0.0,'1',1.0121045112609863,1.0121045112609863,0.0,40.0
Fear,stimuli/10F_FE_O.BMP,stimuli/11F_FE_O.BMP,stimuli/10F_FE_O.BMP,stimuli/EmptyFrame.bmp,stimuli/RedFrame.bmp,2,Fear,Female,3,1,1.0,179.78392028808594,179.78392028808594,0.0,183.78135681152344,183.78135681152344,0.0,182.78892517089844,182.78892517089844,0.0,1.0,1.0,0.0,'2',0.8564084768295288,0.8564084768295288,0.0,41.0
Fear,stimuli/29M_FE_O.BMP,stimuli/29M_FE_O.BMP,stimuli/24M_FE_O.BMP,stimuli/EmptyFrame.bmp,stimuli/RedFrame.bmp,1,Fear,Male,3,1,1.0,183.81092834472656,183.81092834472656,0.0,187.79139709472656,187.79139709472656,0.0,186.81651306152344,186.81651306152344,0.0,1.0,1.0,0.0,'1',0.8956190943717957,0.8956190943717957,0.0,42.0
Fear,stimuli/11F_FE_O.BMP,stimuli/10F_FE_O.BMP,stimuli/11F_FE_O.BMP,stimuli/EmptyFrame.bmp,stimuli/RedFrame.bmp,2,Fear,Female,3,1,1.0,187.814453125,187.814453125,0.0,191.812744140625,191.812744140625,0.0,190.8251190185547,190.8251190185547,0.0,1.0,1.0,0.0,'2',0.7526592016220093,0.7526592016220093,0.0,43.0
MatchFaces,stimuli/MatchFaces.bmp,stimuli/EmptyFace.bmp,stimuli/EmptyFace.bmp,stimuli/EmptyFrame.bmp,stimuli/EmptyFrame.bmp,Null,None,None,3,1,1.0,192.140869140625,192.140869140625,0.0,195.82113647460938,195.82113647460938,0.0,194.82620239257812,194.82620239257812,0.0,0.0,0.0,0.0,,,,,44.0
Happy,stimuli/19F_HA_O.BMP,stimuli/19F_HA_O.BMP,stimuli/18F_HA_O.BMP,stimuli/EmptyFrame.bmp,stimuli/RedFrame.bmp,1,Happy,Female,3,1,1.0,195.88702392578125,195.88702392578125,0.0,199.8388671875,199.8388671875,0.0,198.85633850097656,198.85633850097656,0.0,1.0,1.0,0.0,'1',0.9117380976676941,0.9117380976676941,0.0,45.0
Happy,stimuli/17F_HA_O.BMP,stimuli/16F_HA_O.BMP,stimuli/17F_HA_O.BMP,stimuli/EmptyFrame.bmp,stimuli/RedFrame.bmp,2,Happy,Female,3,1,1.0,199.86544799804688,199.86544799804688,0.0,203.8552703857422,203.8552703857422,0.0,202.86647033691406,202.86647033691406,0.0,1.0,1.0,0.0,'2',1.4901915788650513,1.4901915788650513,0.0,46.0
Happy,stimuli/43M_HA_O.BMP,stimuli/42M_HA_O.BMP,stimuli/43M_HA_O.BMP,stimuli/EmptyFrame.bmp,stimuli/RedFrame.bmp,2,Happy,Male,3,1,1.0,203.88180541992188,203.88180541992188,0.0,207.86744689941406,207.86744689941406,0.0,206.88262939453125,206.88262939453125,0.0,1.0,1.0,0.0,'2',1.70180344581604,1.70180344581604,0.0,47.0
Happy,stimuli/41M_HA_O.BMP,stimuli/41M_HA_O.BMP,stimuli/40M_HA_O.BMP,stimuli/EmptyFrame.bmp,stimuli/RedFrame.bmp,1,Happy,Male,3,1,1.0,207.89060974121094,207.89060974121094,0.0,211.87913513183594,211.87913513183594,0.0,210.90036010742188,210.90036010742188,0.0,1.0,1.0,0.0,'1',0.8325995802879333,0.8325995802879333,0.0,48.0
Happy,stimuli/15F_HA_O.BMP,stimuli/15F_HA_O.BMP,stimuli/14F_HA_O.BMP,stimuli/EmptyFrame.bmp,stimuli/RedFrame.bmp,1,Happy,Female,3,1,1.0,211.91354370117188,211.91354370117188,0.0,215.89022827148438,215.89022827148438,0.0,214.9094696044922,214.9094696044922,0.0,1.0,1.0,0.0,'1',1.106331467628479,1.106331467628479,0.0,49.0
Happy,stimuli/13F_HA_O.BMP,stimuli/13F_HA_O.BMP,stimuli/12F_HA_O.BMP,stimuli/EmptyFrame.bmp,stimuli/RedFrame.bmp,1,Happy,Female,3,1,1.0,215.91836547851562,215.91836547851562,0.0,219.9102020263672,219.9102020263672,0.0,218.91964721679688,218.91964721679688,0.0,1.0,1.0,0.0,'1',0.9494922757148743,0.9494922757148743,0.0,50.0
Happy,stimuli/39M_HA_O.BMP,stimuli/38M_HA_O.BMP,stimuli/39M_HA_O.BMP,stimuli/EmptyFrame.bmp,stimuli/RedFrame.bmp,2,Happy,Male,3,1,1.0,219.9387969970703,219.9387969970703,0.0,223.92323303222656,223.92323303222656,0.0,222.93695068359375,222.93695068359375,0.0,1.0,1.0,0.0,'2',1.0012259483337402,1.0012259483337402,0.0,51.0
Happy,stimuli/37M_HA_O.BMP,stimuli/37M_HA_O.BMP,stimuli/36M_HA_O.BMP,stimuli/EmptyFrame.bmp,stimuli/RedFrame.bmp,1,Happy,Male,3,1,1.0,223.94947814941406,223.94947814941406,0.0,227.94973754882812,227.94973754882812,0.0,226.95053100585938,226.95053100585938,0.0,1.0,1.0,0.0,'1',0.97376549243927,0.97376549243927,0.0,52.0
Happy,stimuli/35M_HA_O.BMP,stimuli/34M_HA_O.BMP,stimuli/35M_HA_O.BMP,stimuli/EmptyFrame.bmp,stimuli/RedFrame.bmp,2,Happy,Male,3,1,1.0,227.97723388671875,227.97723388671875,0.0,231.974609375,231.974609375,0.0,230.9785919189453,230.9785919189453,0.0,1.0,1.0,0.0,'2',1.0064153671264648,1.0064153671264648,0.0,53.0
Happy,stimuli/11F_HA_O.BMP,stimuli/10F_HA_O.BMP,stimuli/11F_HA_O.BMP,stimuli/EmptyFrame.bmp,stimuli/RedFrame.bmp,2,Happy,Female,3,1,1.0,232.00241088867188,232.00241088867188,0.0,235.98922729492188,235.98922729492188,0.0,235.00442504882812,235.00442504882812,0.0,1.0,1.0,0.0,'2',0.7735971212387085,0.7735971212387085,0.0,54.0
Match Shape,stimuli/MatchShapes.bmp,stimuli/EmptyFace.bmp,stimuli/EmptyFace.bmp,stimuli/EmptyFrame.bmp,stimuli/EmptyFrame.bmp,Null,None,None,3,1,1.0,236.01486206054688,236.01486206054688,0.0,239.9991455078125,239.9991455078125,0.0,239.0103759765625,239.0103759765625,0.0,0.0,0.0,0.0,,,,,55.0
Shape,stimuli/circle.bmp,stimuli/vertical.bmp,stimuli/circle.bmp,stimuli/EmptyFrame.bmp,stimuli/RedFrame.bmp,2,Shape,None,3,1,1.0,240.05006408691406,240.05006408691406,0.0,244.02474975585938,244.02474975585938,0.0,243.02134704589844,243.02134704589844,0.0,1.0,1.0,0.0,'2',0.8044881820678711,0.8044881820678711,0.0,56.0
Shape,stimuli/horizontal.bmp,stimuli/circle.bmp,stimuli/horizontal.bmp,stimuli/EmptyFrame.bmp,stimuli/RedFrame.bmp,2,Shape,None,3,1,1.0,244.0467987060547,244.0467987060547,0.0,248.04014587402344,248.04014587402344,0.0,247.05181884765625,247.05181884765625,0.0,1.0,1.0,0.0,'2',0.7876172065734863,0.7876172065734863,0.0,57.0
Shape,stimuli/vertical.bmp,stimuli/vertical.bmp,stimuli/horizontal.bmp,stimuli/EmptyFrame.bmp,stimuli/RedFrame.bmp,1,Shape,None,3,1,1.0,248.06483459472656,248.06483459472656,0.0,252.0590362548828,252.0590362548828,0.0,251.06869506835938,251.06869506835938,0.0,1.0,1.0,0.0,'1',0.6983705759048462,0.6983705759048462,0.0,58.0
Shape,stimuli/horizontal.bmp,stimuli/circle.bmp,stimuli/horizontal.bmp,stimuli/EmptyFrame.bmp,stimuli/RedFrame.bmp,2,Shape,None,3,1,1.0,252.083740234375,252.083740234375,0.0,256.06976318359375,256.06976318359375,0.0,255.08961486816406,255.08961486816406,0.0,1.0,1.0,0.0,'2',0.6718258857727051,0.6718258857727051,0.0,59.0
Shape,stimuli/horizontal.bmp,stimuli/horizontal.bmp,stimuli/vertical.bmp,stimuli/EmptyFrame.bmp,stimuli/RedFrame.bmp,1,Shape,None,3,1,1.0,256.0950622558594,256.0950622558594,0.0,260.08404541015625,260.08404541015625,0.0,259.09906005859375,259.09906005859375,0.0,1.0,1.0,0.0,'1',0.7329534292221069,0.7329534292221069,0.0,60.0
Shape,stimuli/vertical.bmp,stimuli/vertical.bmp,stimuli/circle.bmp,stimuli/EmptyFrame.bmp,stimuli/RedFrame.bmp,1,Shape,None,3,1,1.0,260.1112365722656,260.1112365722656,0.0,264.1067199707031,264.1067199707031,0.0,263.10784912109375,263.10784912109375,0.0,1.0,1.0,0.0,'1',0.6065031290054321,0.6065031290054321,0.0,61.0
Shape,stimuli/circle.bmp,stimuli/horizontal.bmp,stimuli/circle.bmp,stimuli/EmptyFrame.bmp,stimuli/RedFrame.bmp,2,Shape,None,3,1,1.0,264.1297912597656,264.1297912597656,0.0,268.1278076171875,268.1278076171875,0.0,267.1289978027344,267.1289978027344,0.0,1.0,1.0,0.0,'2',0.7279928922653198,0.7279928922653198,0.0,62.0
Shape,stimuli/circle.bmp,stimuli/vertical.bmp,stimuli/circle.bmp,stimuli/EmptyFrame.bmp,stimuli/RedFrame.bmp,2,Shape,None,3,1,1.0,268.14862060546875,268.14862060546875,0.0,272.14849853515625,272.14849853515625,0.0,271.15374755859375,271.15374755859375,0.0,1.0,1.0,0.0,'2',0.7088425159454346,0.7088425159454346,0.0,63.0
Shape,stimuli/vertical.bmp,stimuli/vertical.bmp,stimuli/horizontal.bmp,stimuli/EmptyFrame.bmp,stimuli/RedFrame.bmp,1,Shape,None,3,1,1.0,272.1749267578125,272.1749267578125,0.0,276.166015625,276.166015625,0.0,275.18084716796875,275.18084716796875,0.0,1.0,1.0,0.0,'1',0.961246907711029,0.961246907711029,0.0,64.0
Shape,stimuli/horizontal.bmp,stimuli/horizontal.bmp,stimuli/circle.bmp,stimuli/EmptyFrame.bmp,stimuli/RedFrame.bmp,1,Shape,None,3,1,1.0,276.185546875,276.185546875,0.0,280.1825866699219,280.1825866699219,0.0,279.1968994140625,279.1968994140625,0.0,1.0,1.0,0.0,'1',0.6706060171127319,0.6706060171127319,0.0,65.0
MatchFaces,stimuli/MatchFaces.bmp,stimuli/EmptyFace.bmp,stimuli/EmptyFace.bmp,stimuli/EmptyFrame.bmp,stimuli/EmptyFrame.bmp,Null,None,None,3,1,1.0,280.5043029785156,280.5043029785156,0.0,284.1883544921875,284.1883544921875,0.0,283.1939392089844,283.1939392089844,0.0,0.0,0.0,0.0,,,,,66.0
Anger,stimuli/42M_AN_O.BMP,stimuli/42M_AN_O.BMP,stimuli/43M_AN_O.BMP,stimuli/EmptyFrame.bmp,stimuli/RedFrame.bmp,1,Anger,Male,3,1,1.0,284.26104736328125,284.26104736328125,0.0,288.2047119140625,288.2047119140625,0.0,287.2216796875,287.2216796875,0.0,1.0,1.0,0.0,'1',0.7589898109436035,0.7589898109436035,0.0,67.0
Anger,stimuli/07F_AN_O.BMP,stimuli/07F_AN_O.BMP,stimuli/14F_AN_O.BMP,stimuli/EmptyFrame.bmp,stimuli/RedFrame.bmp,1,Anger,Female,3,1,1.0,288.2366943359375,288.2366943359375,0.0,292.2163391113281,292.2163391113281,0.0,291.23077392578125,291.23077392578125,0.0,1.0,1.0,0.0,'1',0.7029194831848145,0.7029194831848145,0.0,68.0
Anger,stimuli/40M_AN_O.BMP,stimuli/41M_AN_O.BMP,stimuli/40M_AN_O.BMP,stimuli/EmptyFrame.bmp,stimuli/RedFrame.bmp,2,Anger,Male,3,1,1.0,292.2805480957031,292.2805480957031,0.0,296.22705078125,296.22705078125,0.0,295.2377624511719,295.2377624511719,0.0,1.0,1.0,0.0,'2',0.7523412704467773,0.7523412704467773,0.0,69.0
Anger,stimuli/38M_AN_O.BMP,stimuli/39M_AN_O.BMP,stimuli/38M_AN_O.BMP,stimuli/EmptyFrame.bmp,stimuli/RedFrame.bmp,2,Anger,Male,3,1,1.0,296.2608947753906,296.2608947753906,0.0,300.24713134765625,300.24713134765625,0.0,299.2618713378906,299.2618713378906,0.0,1.0,1.0,0.0,'2',1.309175968170166,1.309175968170166,0.0,70.0
Anger,stimuli/08F_AN_O.BMP,stimuli/08F_AN_O.BMP,stimuli/13F_AN_O.BMP,stimuli/EmptyFrame.bmp,stimuli/RedFrame.bmp,1,Anger,Female,3,1,1.0,300.2756652832031,300.2756652832031,0.0,304.25701904296875,304.25701904296875,0.0,303.2843322753906,303.2843322753906,0.0,1.0,1.0,0.0,'1',1.3108799457550049,1.3108799457550049,0.0,71.0
Anger,stimuli/36M_AN_O.BMP,stimuli/37M_AN_O.BMP,stimuli/36M_AN_O.BMP,stimuli/EmptyFrame.bmp,stimuli/RedFrame.bmp,2,Anger,Male,3,1,1.0,304.2848815917969,304.2848815917969,0.0,308.27191162109375,308.27191162109375,0.0,307.2947998046875,307.2947998046875,0.0,1.0,1.0,0.0,'2',1.0791685581207275,1.0791685581207275,0.0,72.0
Anger,stimuli/09F_AN_O.BMP,stimuli/12F_AN_O.BMP,stimuli/09F_AN_O.BMP,stimuli/EmptyFrame.bmp,stimuli/RedFrame.bmp,2,Anger,Female,3,1,1.0,308.29815673828125,308.29815673828125,0.0,312.29449462890625,312.29449462890625,0.0,311.3007507324219,311.3007507324219,0.0,1.0,1.0,0.0,'2',0.8096252083778381,0.8096252083778381,0.0,73.0
Anger,stimuli/34M_AN_O.BMP,stimuli/35M_AN_O.BMP,stimuli/34M_AN_O.BMP,stimuli/EmptyFrame.bmp,stimuli/RedFrame.bmp,2,Anger,Male,3,1,1.0,312.3199768066406,312.3199768066406,0.0,316.30548095703125,316.30548095703125,0.0,315.31964111328125,315.31964111328125,0.0,1.0,1.0,0.0,'2',0.985275387763977,0.985275387763977,0.0,74.0
Anger,stimuli/10F_AN_O.BMP,stimuli/10F_AN_O.BMP,stimuli/11F_AN_O.BMP,stimuli/EmptyFrame.bmp,stimuli/RedFrame.bmp,1,Anger,Female,3,1,1.0,316.3291320800781,316.3291320800781,0.0,320.3340759277344,320.3340759277344,0.0,319.33685302734375,319.33685302734375,0.0,1.0,1.0,0.0,'1',0.862438976764679,0.862438976764679,0.0,75.0
Anger,stimuli/12F_AN_O.BMP,stimuli/12F_AN_O.BMP,stimuli/13F_AN_O.BMP,stimuli/EmptyFrame.bmp,stimuli/RedFrame.bmp,1,Anger,Female,3,1,1.0,320.35736083984375,320.35736083984375,0.0,324.3555908203125,324.3555908203125,0.0,323.37225341796875,323.37225341796875,0.0,1.0,1.0,0.0,'1',0.8465973138809204,0.8465973138809204,0.0,76.0
MatchFaces,stimuli/MatchFaces.bmp,stimuli/EmptyFace.bmp,stimuli/EmptyFace.bmp,stimuli/EmptyFrame.bmp,stimuli/EmptyFrame.bmp,Null,None,None,3,1,1.0,324.6908874511719,324.6908874511719,0.0,328.3676452636719,328.3676452636719,0.0,327.3707580566406,327.3707580566406,0.0,0.0,0.0,0.0,,,,,77.0
Happy,stimuli/20M_HA_O.BMP,stimuli/21M_HA_O.BMP,stimuli/20M_HA_O.BMP,stimuli/EmptyFrame.bmp,stimuli/RedFrame.bmp,2,Happy,Male,3,1,1.0,328.44049072265625,328.44049072265625,0.0,332.3789367675781,332.3789367675781,0.0,331.4031066894531,331.4031066894531,0.0,1.0,1.0,0.0,'2',1.4957953691482544,1.4957953691482544,0.0,78.0
Happy,stimuli/01F_HA_O.bmp,stimuli/01F_HA_O.bmp,stimuli/02F_HA_O.bmp,stimuli/EmptyFrame.bmp,stimuli/RedFrame.bmp,1,Happy,Female,3,1,1.0,332.4101257324219,332.4101257324219,0.0,336.3939208984375,336.3939208984375,0.0,335.41290283203125,335.41290283203125,0.0,1.0,1.0,0.0,'1',0.7567515969276428,0.7567515969276428,0.0,79.0
Happy,stimuli/22M_HA_O.BMP,stimuli/23M_HA_O.BMP,stimuli/22M_HA_O.BMP,stimuli/EmptyFrame.bmp,stimuli/RedFrame.bmp,2,Happy,Male,3,1,1.0,336.42474365234375,336.42474365234375,0.0,340.4183654785156,340.4183654785156,0.0,339.4229431152344,339.4229431152344,0.0,1.0,1.0,0.0,'2',0.8623859286308289,0.8623859286308289,0.0,80.0
Happy,stimuli/24M_HA_O.BMP,stimuli/24M_HA_O.BMP,stimuli/25M_HA_O.BMP,stimuli/EmptyFrame.bmp,stimuli/RedFrame.bmp,1,Happy,Male,3,1,1.0,340.4430847167969,340.4430847167969,0.0,344.43048095703125,344.43048095703125,0.0,343.4473876953125,343.4473876953125,0.0,1.0,1.0,0.0,'1',0.8936768174171448,0.8936768174171448,0.0,81.0
Happy,stimuli/03F_HA_O.bmp,stimuli/05F_HA_O.bmp,stimuli/03F_HA_O.bmp,stimuli/EmptyFrame.bmp,stimuli/RedFrame.bmp,2,Happy,Female,3,1,1.0,344.4942932128906,344.4942932128906,0.0,348.4425354003906,348.4425354003906,0.0,347.47064208984375,347.47064208984375,0.0,1.0,1.0,0.0,'2',0.9501457810401917,0.9501457810401917,0.0,82.0
Happy,stimuli/26M_HA_O.BMP,stimuli/26M_HA_O.BMP,stimuli/27M_HA_O.BMP,stimuli/EmptyFrame.bmp,stimuli/RedFrame.bmp,1,Happy,Male,3,1,1.0,348.4666748046875,348.4666748046875,0.0,352.4667053222656,352.4667053222656,0.0,351.4715881347656,351.4715881347656,0.0,1.0,1.0,0.0,'1',0.9709802865982056,0.9709802865982056,0.0,83.0
Happy,stimuli/06F_HA_O.bmp,stimuli/07F_HA_O.BMP,stimuli/06F_HA_O.bmp,stimuli/EmptyFrame.bmp,stimuli/RedFrame.bmp,2,Happy,Female,3,1,1.0,352.4930419921875,352.4930419921875,0.0,356.4819030761719,356.4819030761719,0.0,355.50457763671875,355.50457763671875,0.0,1.0,1.0,0.0,'2',1.1736563444137573,1.1736563444137573,0.0,84.0
Happy,stimuli/08F_HA_O.BMP,stimuli/08F_HA_O.BMP,stimuli/09F_HA_O.BMP,stimuli/EmptyFrame.bmp,stimuli/RedFrame.bmp,1,Happy,Female,3,1,1.0,356.5171813964844,356.5171813964844,0.0,360.497802734375,360.497802734375,0.0,359.5153503417969,359.5153503417969,0.0,1.0,1.0,0.0,'1',1.6832481622695923,1.6832481622695923,0.0,85.0
Happy,stimuli/28M_HA_O.BMP,stimuli/29M_HA_O.BMP,stimuli/28M_HA_O.BMP,stimuli/EmptyFrame.bmp,stimuli/RedFrame.bmp,2,Happy,Male,3,1,1.0,360.5638122558594,360.5638122558594,0.0,364.51593017578125,364.51593017578125,0.0,363.5426330566406,363.5426330566406,0.0,1.0,1.0,0.0,'2',1.1997085809707642,1.1997085809707642,0.0,86.0
Happy,stimuli/10F_HA_O.BMP,stimuli/10F_HA_O.BMP,stimuli/06F_HA_O.bmp,stimuli/EmptyFrame.bmp,stimuli/RedFrame.bmp,1,Happy,Female,3,1,1.0,364.5428466796875,364.5428466796875,0.0,368.52838134765625,368.52838134765625,0.0,367.541015625,367.541015625,0.0,1.0,1.0,0.0,'1',0.6787158846855164,0.6787158846855164,0.0,87.0
MatchFaces,stimuli/MatchFaces.bmp,stimuli/EmptyFace.bmp,stimuli/EmptyFace.bmp,stimuli/EmptyFrame.bmp,stimuli/EmptyFrame.bmp,Null,None,None,3,1,1.0,368.77239990234375,368.77239990234375,0.0,372.537353515625,372.537353515625,0.0,371.5376281738281,371.5376281738281,0.0,0.0,0.0,0.0,,,,,88.0
Neutral,stimuli/07F_NE_C.BMP,stimuli/07F_NE_C.BMP,stimuli/14F_NE_C.BMP,stimuli/EmptyFrame.bmp,stimuli/RedFrame.bmp,1,Neutral,Female,3,1,1.0,372.6084289550781,372.6084289550781,0.0,376.55548095703125,376.55548095703125,0.0,375.573974609375,375.573974609375,0.0,1.0,1.0,0.0,'1',0.8879464864730835,0.8879464864730835,0.0,89.0
Neutral,stimuli/25M_NE_C.BMP,stimuli/29M_NE_C.BMP,stimuli/25M_NE_C.BMP,stimuli/EmptyFrame.bmp,stimuli/RedFrame.bmp,2,Neutral,Male,3,1,1.0,376.5794372558594,376.5794372558594,0.0,380.5679016113281,380.5679016113281,0.0,379.58135986328125,379.58135986328125,0.0,1.0,1.0,0.0,'2',0.9532191157341003,0.9532191157341003,0.0,90.0
Neutral,stimuli/26M_NE_C.BMP,stimuli/26M_NE_C.BMP,stimuli/28M_NE_C.BMP,stimuli/EmptyFrame.bmp,stimuli/RedFrame.bmp,1,Neutral,Male,3,1,1.0,380.5951232910156,380.5951232910156,0.0,384.5916442871094,384.5916442871094,0.0,383.59490966796875,383.59490966796875,0.0,1.0,1.0,0.0,'1',0.8966370820999146,0.8966370820999146,0.0,91.0
Neutral,stimuli/08F_NE_C.BMP,stimuli/13F_NE_C.BMP,stimuli/08F_NE_C.BMP,stimuli/EmptyFrame.bmp,stimuli/RedFrame.bmp,2,Neutral,Female,3,1,1.0,384.6183776855469,384.6183776855469,0.0,388.6042785644531,388.6042785644531,0.0,387.61981201171875,387.61981201171875,0.0,1.0,1.0,0.0,'2',1.0220675468444824,1.0220675468444824,0.0,92.0
Neutral,stimuli/09F_NE_C.BMP,stimuli/09F_NE_C.BMP,stimuli/12F_NE_C.BMP,stimuli/EmptyFrame.bmp,stimuli/RedFrame.bmp,1,Neutral,Female,3,1,1.0,388.6349792480469,388.6349792480469,0.0,392.62139892578125,392.62139892578125,0.0,391.63018798828125,391.63018798828125,0.0,1.0,1.0,0.0,'1',0.9264246225357056,0.9264246225357056,0.0,93.0
Neutral,stimuli/27M_NE_C.BMP,stimuli/26M_NE_C.BMP,stimuli/27M_NE_C.BMP,stimuli/EmptyFrame.bmp,stimuli/RedFrame.bmp,2,Neutral,Male,3,1,1.0,392.64251708984375,392.64251708984375,0.0,396.63348388671875,396.63348388671875,0.0,395.6578063964844,395.6578063964844,0.0,1.0,1.0,0.0,'2',1.0337086915969849,1.0337086915969849,0.0,94.0
Neutral,stimuli/28M_NE_C.BMP,stimuli/28M_NE_C.BMP,stimuli/25M_NE_C.BMP,stimuli/EmptyFrame.bmp,stimuli/RedFrame.bmp,1,Neutral,Male,3,1,1.0,396.65576171875,396.65576171875,0.0,400.647216796875,400.647216796875,0.0,399.66278076171875,399.66278076171875,0.0,1.0,1.0,0.0,'1',0.9173524975776672,0.9173524975776672,0.0,95.0
Neutral,stimuli/10F_NE_C.BMP,stimuli/11F_NE_C.BMP,stimuli/10F_NE_C.BMP,stimuli/EmptyFrame.bmp,stimuli/RedFrame.bmp,2,Neutral,Female,3,1,1.0,400.67901611328125,400.67901611328125,0.0,404.67120361328125,404.67120361328125,0.0,403.68017578125,403.68017578125,0.0,1.0,1.0,0.0,'2',0.9773094058036804,0.9773094058036804,0.0,96.0
Neutral,stimuli/29M_NE_C.BMP,stimuli/29M_NE_C.BMP,stimuli/24M_NE_C.BMP,stimuli/EmptyFrame.bmp,stimuli/RedFrame.bmp,1,Neutral,Male,3,1,1.0,404.6961669921875,404.6961669921875,0.0,408.6887512207031,408.6887512207031,0.0,407.70343017578125,407.70343017578125,0.0,1.0,1.0,0.0,'1',0.7730423808097839,0.7730423808097839,0.0,97.0
Neutral,stimuli/11F_NE_C.BMP,stimuli/10F_NE_C.BMP,stimuli/11F_NE_C.BMP,stimuli/EmptyFrame.bmp,stimuli/RedFrame.bmp,2,Neutral,Female,3,1,1.0,408.71875,408.71875,0.0,412.7034912109375,412.7034912109375,0.0,411.7223205566406,411.7223205566406,0.0,1.0,1.0,0.0,'2',0.7083076238632202,0.7083076238632202,0.0,98.0
MatchFaces,stimuli/MatchFaces.bmp,stimuli/EmptyFace.bmp,stimuli/EmptyFace.bmp,stimuli/EmptyFrame.bmp,stimuli/EmptyFrame.bmp,Null,None,None,3,1,1.0,412.953369140625,412.953369140625,0.0,416.71002197265625,416.71002197265625,0.0,415.7220458984375,415.7220458984375,0.0,0.0,0.0,0.0,,,,,99.0
Fear,stimuli/23M_FE_O.BMP,stimuli/23M_FE_O.BMP,stimuli/24M_FE_O.BMP,stimuli/EmptyFrame.bmp,stimuli/RedFrame.bmp,1,Fear,Male,3,1,1.0,416.7878112792969,416.7878112792969,0.0,420.7237548828125,420.7237548828125,0.0,419.74676513671875,419.74676513671875,0.0,1.0,1.0,0.0,'1',1.4088188409805298,1.4088188409805298,0.0,100.0
Fear,stimuli/19F_FE_O.BMP,stimuli/18F_FE_O.BMP,stimuli/19F_FE_O.BMP,stimuli/EmptyFrame.bmp,stimuli/RedFrame.bmp,2,Fear,Female,3,1,1.0,420.7903747558594,420.7903747558594,0.0,424.7461242675781,424.7461242675781,0.0,423.759521484375,423.759521484375,0.0,1.0,1.0,0.0,'2',1.0092782974243164,1.0092782974243164,0.0,101.0
Fear,stimuli/17F_FE_O.BMP,stimuli/17F_FE_O.BMP,stimuli/16F_FE_O.BMP,stimuli/EmptyFrame.bmp,stimuli/RedFrame.bmp,1,Fear,Female,3,1,1.0,424.77349853515625,424.77349853515625,0.0,428.76593017578125,428.76593017578125,0.0,427.7742919921875,427.7742919921875,0.0,1.0,1.0,0.0,'1',1.1279891729354858,1.1279891729354858,0.0,102.0
Fear,stimuli/15F_FE_O.BMP,stimuli/18F_FE_O.BMP,stimuli/15F_FE_O.BMP,stimuli/EmptyFrame.bmp,stimuli/RedFrame.bmp,2,Fear,Female,3,1,1.0,428.7950744628906,428.7950744628906,0.0,432.78656005859375,432.78656005859375,0.0,431.8000793457031,431.8000793457031,0.0,1.0,1.0,0.0,'2',0.8519521951675415,0.8519521951675415,0.0,103.0
Fear,stimuli/21M_FE_O.BMP,stimuli/21M_FE_O.BMP,stimuli/22M_FE_O.BMP,stimuli/EmptyFrame.bmp,stimuli/RedFrame.bmp,1,Fear,Male,3,1,1.0,432.81396484375,432.81396484375,0.0,436.80908203125,436.80908203125,0.0,435.8287658691406,435.8287658691406,0.0,1.0,1.0,0.0,'1',0.8690813183784485,0.8690813183784485,0.0,104.0
Fear,stimuli/29M_FE_O.BMP,stimuli/30M_FE_O.BMP,stimuli/29M_FE_O.BMP,stimuli/EmptyFrame.bmp,stimuli/RedFrame.bmp,2,Fear,Male,3,1,1.0,436.8373107910156,436.8373107910156,0.0,440.83087158203125,440.83087158203125,0.0,439.8478088378906,439.8478088378906,0.0,1.0,1.0,0.0,'2',0.8892123103141785,0.8892123103141785,0.0,105.0
Fear,stimuli/31M_FE_O.BMP,stimuli/31M_FE_O.BMP,stimuli/38M_FE_O.BMP,stimuli/EmptyFrame.bmp,stimuli/RedFrame.bmp,1,Fear,Male,3,1,1.0,440.85687255859375,440.85687255859375,0.0,444.8470458984375,444.8470458984375,0.0,443.866455078125,443.866455078125,0.0,1.0,1.0,0.0,'1',0.8651139736175537,0.8651139736175537,0.0,106.0
Fear,stimuli/09F_FE_O.BMP,stimuli/07F_FE_O.BMP,stimuli/09F_FE_O.BMP,stimuli/EmptyFrame.bmp,stimuli/RedFrame.bmp,2,Fear,Female,3,1,1.0,444.86846923828125,444.86846923828125,0.0,448.8623352050781,448.8623352050781,0.0,447.88262939453125,447.88262939453125,0.0,1.0,1.0,0.0,'2',1.0165715217590332,1.0165715217590332,0.0,107.0
Fear,stimuli/11F_FE_O.BMP,stimuli/12F_FE_O.BMP,stimuli/11F_FE_O.BMP,stimuli/EmptyFrame.bmp,stimuli/RedFrame.bmp,2,Fear,Female,3,1,1.0,448.8827819824219,448.8827819824219,0.0,452.883544921875,452.883544921875,0.0,451.8902587890625,451.8902587890625,0.0,1.0,1.0,0.0,'2',0.7158058285713196,0.7158058285713196,0.0,108.0
Fear,stimuli/34M_FE_O.BMP,stimuli/34M_FE_O.BMP,stimuli/33M_FE_O.BMP,stimuli/EmptyFrame.bmp,stimuli/RedFrame.bmp,1,Fear,Male,3,1,1.0,452.91485595703125,452.91485595703125,0.0,456.91424560546875,456.91424560546875,0.0,455.92205810546875,455.92205810546875,0.0,1.0,1.0,0.0,'1',0.6491013765335083,0.6491013765335083,0.0,109.0

extraInfo
participant,sub001
session,001
date,2025_May_06_0923
expName,HaririTask_Ver1
psychopyVersion,3.0.1
frameRate,None
