TrialType,Top,Left,Right,EmptyFrame,SelectedFrame,Correct,Emotion,Gender,TrialLength,FixationLength,n,GCFaceStartTime_mean,GCFaceStartTime_raw,GCFaceStartTime_std,GCPostFaceFixationEndTime_mean,GCPostFaceFixationEndTime_raw,GCPostFaceFixationEndTime_std,GCPostFaceFixationStartTime_mean,GCPostFaceFixationStartTime_raw,GCPostFaceFixationStartTime_std,key_resp_trial.corr_mean,key_resp_trial.corr_raw,key_resp_trial.corr_std,key_resp_trial.keys_raw,key_resp_trial.rt_mean,key_resp_trial.rt_raw,key_resp_trial.rt_std,order
MatchFaces,stimuli/MatchFaces.bmp,stimuli/EmptyFace.bmp,stimuli/EmptyFace.bmp,stimuli/EmptyFrame.bmp,stimuli/EmptyFrame.bmp,Null,None,None,3,1,1.0,15.262861251831055,15.262861251831055,0.0,19.05420684814453,19.05420684814453,0.0,18.06005096435547,18.06005096435547,0.0,0.0,0.0,0.0,,,,,0.0
Anger,stimuli/01F_AN_O.bmp,stimuli/19F_AN_O.BMP,stimuli/01F_AN_O.bmp,stimuli/EmptyFrame.bmp,stimuli/RedFrame.bmp,2,Anger,Female,3,1,1.0,19.22348976135254,19.22348976135254,0.0,23.078411102294922,23.078411102294922,0.0,22.089580535888672,22.089580535888672,0.0,1.0,1.0,0.0,'2',0.7158644199371338,0.7158644199371338,0.0,1.0
Anger,stimuli/02f_an_o.bmp,stimuli/18F_AN_O.BMP,stimuli/02f_an_o.bmp,stimuli/EmptyFrame.bmp,stimuli/RedFrame.bmp,2,Anger,Female,3,1,1.0,23.103164672851562,23.103164672851562,0.0,27.094945907592773,27.094945907592773,0.0,26.100662231445312,26.100662231445312,0.0,1.0,1.0,0.0,'2',0.8868260979652405,0.8868260979652405,0.0,2.0
Anger,stimuli/20M_AN_O.BMP,stimuli/34M_AN_O.BMP,stimuli/20M_AN_O.BMP,stimuli/EmptyFrame.bmp,stimuli/RedFrame.bmp,2,Anger,Male,3,1,1.0,27.127832412719727,27.127832412719727,0.0,31.103105545043945,31.103105545043945,0.0,30.119060516357422,30.119060516357422,0.0,1.0,1.0,0.0,'2',1.0672088861465454,1.0672088861465454,0.0,3.0
Anger,stimuli/03F_AN_O.bmp,stimuli/03F_AN_O.bmp,stimuli/17F_AN_O.BMP,stimuli/EmptyFrame.bmp,stimuli/RedFrame.bmp,1,Anger,Female,3,1,1.0,31.132064819335938,31.132064819335938,0.0,35.1265983581543,35.1265983581543,0.0,34.13561248779297,34.13561248779297,0.0,1.0,1.0,0.0,'1',0.8191738724708557,0.8191738724708557,0.0,4.0
Anger,stimuli/21M_AN_O.BMP,stimuli/21M_AN_O.BMP,stimuli/33M_AN_O.BMP,stimuli/EmptyFrame.bmp,stimuli/RedFrame.bmp,1,Anger,Male,3,1,1.0,35.15919876098633,35.15919876098633,0.0,39.141578674316406,39.141578674316406,0.0,38.15348815917969,38.15348815917969,0.0,1.0,1.0,0.0,'1',0.7966262102127075,0.7966262102127075,0.0,5.0
Anger,stimuli/22M_AN_O.BMP,stimuli/32M_AN_O.BMP,stimuli/22M_AN_O.BMP,stimuli/EmptyFrame.bmp,stimuli/RedFrame.bmp,2,Anger,Male,3,1,1.0,39.2094612121582,39.2094612121582,0.0,43.154693603515625,43.154693603515625,0.0,42.16987609863281,42.16987609863281,0.0,1.0,1.0,0.0,'2',0.8112509846687317,0.8112509846687317,0.0,6.0
Anger,stimuli/23M_AN_O.BMP,stimuli/23M_AN_O.BMP,stimuli/31M_AN_O.BMP,stimuli/EmptyFrame.bmp,stimuli/RedFrame.bmp,1,Anger,Male,3,1,1.0,43.18013381958008,43.18013381958008,0.0,47.1700439453125,47.1700439453125,0.0,46.1766357421875,46.1766357421875,0.0,1.0,1.0,0.0,'1',0.7196028232574463,0.7196028232574463,0.0,7.0
Anger,stimuli/05F_AN_O.bmp,stimuli/05F_AN_O.bmp,stimuli/16F_AN_O.BMP,stimuli/EmptyFrame.bmp,stimuli/RedFrame.bmp,1,Anger,Female,3,1,1.0,47.19794845581055,47.19794845581055,0.0,51.18756866455078,51.18756866455078,0.0,50.20172119140625,50.20172119140625,0.0,1.0,1.0,0.0,'1',0.5771166086196899,0.5771166086196899,0.0,8.0
Anger,stimuli/06F_AN_O.bmp,stimuli/15F_AN_O.BMP,stimuli/06F_AN_O.bmp,stimuli/EmptyFrame.bmp,stimuli/RedFrame.bmp,2,Anger,Female,3,1,1.0,51.21525192260742,51.21525192260742,0.0,55.197296142578125,55.197296142578125,0.0,54.212440490722656,54.212440490722656,0.0,1.0,1.0,0.0,'2',0.7637146711349487,0.7637146711349487,0.0,9.0
Anger,stimuli/24M_AN_O.BMP,stimuli/24M_AN_O.BMP,stimuli/30M_AN_O.BMP,stimuli/EmptyFrame.bmp,stimuli/RedFrame.bmp,1,Anger,Male,3,1,1.0,55.22637176513672,55.22637176513672,0.0,59.20664596557617,59.20664596557617,0.0,58.22431564331055,58.22431564331055,0.0,1.0,1.0,0.0,'1',1.0424110889434814,1.0424110889434814,0.0,10.0
MatchShape,stimuli/MatchShapes.bmp,stimuli/EmptyFace.bmp,stimuli/EmptyFace.bmp,stimuli/EmptyFrame.bmp,stimuli/EmptyFrame.bmp,Null,None,None,3,1,1.0,59.234352111816406,59.234352111816406,0.0,63.21961212158203,63.21961212158203,0.0,62.22504806518555,62.22504806518555,0.0,0.0,0.0,0.0,,,,,11.0
Shape,stimuli/horizontal.bmp,stimuli/horizontal.bmp,stimuli/circle.bmp,stimuli/EmptyFrame.bmp,stimuli/RedFrame.bmp,1,Shape,None,3,1,1.0,63.2545166015625,63.2545166015625,0.0,67.24052429199219,67.24052429199219,0.0,66.24481201171875,66.24481201171875,0.0,1.0,1.0,0.0,'1',0.7462542057037354,0.7462542057037354,0.0,12.0
Shape,stimuli/vertical.bmp,stimuli/horizontal.bmp,stimuli/vertical.bmp,stimuli/EmptyFrame.bmp,stimuli/RedFrame.bmp,2,Shape,None,3,1,1.0,67.2659912109375,67.2659912109375,0.0,71.25518035888672,71.25518035888672,0.0,70.26657104492188,70.26657104492188,0.0,1.0,1.0,0.0,'2',0.7089818716049194,0.7089818716049194,0.0,13.0
Shape,stimuli/horizontal.bmp,stimuli/horizontal.bmp,stimuli/vertical.bmp,stimuli/EmptyFrame.bmp,stimuli/RedFrame.bmp,1,Shape,None,3,1,1.0,71.27821350097656,71.27821350097656,0.0,75.26976776123047,75.26976776123047,0.0,74.2823257446289,74.2823257446289,0.0,1.0,1.0,0.0,'1',0.6885995268821716,0.6885995268821716,0.0,14.0
Shape,stimuli/horizontal.bmp,stimuli/circle.bmp,stimuli/horizontal.bmp,stimuli/EmptyFrame.bmp,stimuli/RedFrame.bmp,2,Shape,None,3,1,1.0,75.2899169921875,75.2899169921875,0.0,79.28489685058594,79.28489685058594,0.0,78.30050659179688,78.30050659179688,0.0,1.0,1.0,0.0,'2',0.5961493849754333,0.5961493849754333,0.0,15.0
Shape,stimuli/circle.bmp,stimuli/circle.bmp,stimuli/vertical.bmp,stimuli/EmptyFrame.bmp,stimuli/RedFrame.bmp,1,Shape,None,3,1,1.0,79.30762481689453,79.30762481689453,0.0,83.3046875,83.3046875,0.0,82.32585906982422,82.32585906982422,0.0,1.0,1.0,0.0,'1',0.632968008518219,0.632968008518219,0.0,16.0
Shape,stimuli/circle.bmp,stimuli/circle.bmp,stimuli/horizontal.bmp,stimuli/EmptyFrame.bmp,stimuli/RedFrame.bmp,1,Shape,None,3,1,1.0,83.3264389038086,83.3264389038086,0.0,87.31632232666016,87.31632232666016,0.0,86.3340072631836,86.3340072631836,0.0,1.0,1.0,0.0,'1',0.7267979979515076,0.7267979979515076,0.0,17.0
Shape,stimuli/vertical.bmp,stimuli/circle.bmp,stimuli/vertical.bmp,stimuli/EmptyFrame.bmp,stimuli/RedFrame.bmp,2,Shape,None,3,1,1.0,87.33760070800781,87.33760070800781,0.0,91.32978820800781,91.32978820800781,0.0,90.33612060546875,90.33612060546875,0.0,1.0,1.0,0.0,'2',0.8073626756668091,0.8073626756668091,0.0,18.0
Shape,stimuli/circle.bmp,stimuli/vertical.bmp,stimuli/circle.bmp,stimuli/EmptyFrame.bmp,stimuli/RedFrame.bmp,2,Shape,None,3,1,1.0,91.35142517089844,91.35142517089844,0.0,95.34430694580078,95.34430694580078,0.0,94.3614501953125,94.3614501953125,0.0,1.0,1.0,0.0,'2',0.7503389716148376,0.7503389716148376,0.0,19.0
Shape,stimuli/vertical.bmp,stimuli/horizontal.bmp,stimuli/vertical.bmp,stimuli/EmptyFrame.bmp,stimuli/RedFrame.bmp,2,Shape,None,3,1,1.0,95.3656234741211,95.3656234741211,0.0,99.36015319824219,99.36015319824219,0.0,98.36924743652344,98.36924743652344,0.0,1.0,1.0,0.0,'2',0.8342182040214539,0.8342182040214539,0.0,20.0
Shape,stimuli/vertical.bmp,stimuli/vertical.bmp,stimuli/circle.bmp,stimuli/EmptyFrame.bmp,stimuli/RedFrame.bmp,1,Shape,None,3,1,1.0,99.3842544555664,99.3842544555664,0.0,103.37654113769531,103.37654113769531,0.0,102.38833618164062,102.38833618164062,0.0,1.0,1.0,0.0,'1',0.5838934183120728,0.5838934183120728,0.0,21.0
MatchFaces,stimuli/MatchFaces.bmp,stimuli/EmptyFace.bmp,stimuli/EmptyFace.bmp,stimuli/EmptyFrame.bmp,stimuli/EmptyFrame.bmp,Null,None,None,3,1,1.0,103.56550598144531,103.56550598144531,0.0,107.37944030761719,107.37944030761719,0.0,106.39095306396484,106.39095306396484,0.0,0.0,0.0,0.0,,,,,22.0
Neutral,stimuli/20M_NE_C.BMP,stimuli/21M_NE_C.BMP,stimuli/20M_NE_C.BMP,stimuli/EmptyFrame.bmp,stimuli/RedFrame.bmp,2,Neutral,Male,3,1,1.0,107.4378662109375,107.4378662109375,0.0,111.39080810546875,111.39080810546875,0.0,110.40834045410156,110.40834045410156,0.0,1.0,1.0,0.0,'2',0.6929311752319336,0.6929311752319336,0.0,23.0
Neutral,stimuli/01F_NE_C.bmp,stimuli/01F_NE_C.bmp,stimuli/02F_NE_C.bmp,stimuli/EmptyFrame.bmp,stimuli/RedFrame.bmp,1,Neutral,Female,3,1,1.0,111.41929626464844,111.41929626464844,0.0,115.39917755126953,115.39917755126953,0.0,114.42301177978516,114.42301177978516,0.0,1.0,1.0,0.0,'1',0.6210793852806091,0.6210793852806091,0.0,24.0
Neutral,stimuli/22M_NE_C.BMP,stimuli/23M_NE_C.BMP,stimuli/22M_NE_C.BMP,stimuli/EmptyFrame.bmp,stimuli/RedFrame.bmp,2,Neutral,Male,3,1,1.0,115.42884826660156,115.42884826660156,0.0,119.41889953613281,119.41889953613281,0.0,118.42805480957031,118.42805480957031,0.0,1.0,1.0,0.0,'2',0.6412860155105591,0.6412860155105591,0.0,25.0
Neutral,stimuli/24M_NE_C.BMP,stimuli/24M_NE_C.BMP,stimuli/25M_NE_C.BMP,stimuli/EmptyFrame.bmp,stimuli/RedFrame.bmp,1,Neutral,Male,3,1,1.0,119.44487762451172,119.44487762451172,0.0,123.43843841552734,123.43843841552734,0.0,122.4466323852539,122.4466323852539,0.0,1.0,1.0,0.0,'1',0.8031598925590515,0.8031598925590515,0.0,26.0
Neutral,stimuli/03F_NE_C.bmp,stimuli/05F_NE_C.bmp,stimuli/03F_NE_C.bmp,stimuli/EmptyFrame.bmp,stimuli/RedFrame.bmp,2,Neutral,Female,3,1,1.0,123.46221160888672,123.46221160888672,0.0,127.45421600341797,127.45421600341797,0.0,126.46858215332031,126.46858215332031,0.0,1.0,1.0,0.0,'2',0.7400544881820679,0.7400544881820679,0.0,27.0
Neutral,stimuli/26M_NE_C.BMP,stimuli/26M_NE_C.BMP,stimuli/27M_NE_C.BMP,stimuli/EmptyFrame.bmp,stimuli/RedFrame.bmp,1,Neutral,Male,3,1,1.0,127.48026275634766,127.48026275634766,0.0,131.46717834472656,131.46717834472656,0.0,130.48660278320312,130.48660278320312,0.0,1.0,1.0,0.0,'1',0.5758280158042908,0.5758280158042908,0.0,28.0
Neutral,stimuli/06F_NE_C.bmp,stimuli/07F_NE_C.BMP,stimuli/06F_NE_C.bmp,stimuli/EmptyFrame.bmp,stimuli/RedFrame.bmp,2,Neutral,Female,3,1,1.0,131.48825073242188,131.48825073242188,0.0,135.48513793945312,135.48513793945312,0.0,134.49569702148438,134.49569702148438,0.0,1.0,1.0,0.0,'2',0.6266542077064514,0.6266542077064514,0.0,29.0
Neutral,stimuli/08F_NE_C.BMP,stimuli/08F_NE_C.BMP,stimuli/09F_NE_C.BMP,stimuli/EmptyFrame.bmp,stimuli/RedFrame.bmp,1,Neutral,Female,3,1,1.0,135.5099334716797,135.5099334716797,0.0,139.4972381591797,139.4972381591797,0.0,138.5070037841797,138.5070037841797,0.0,1.0,1.0,0.0,'1',0.7311850190162659,0.7311850190162659,0.0,30.0
Neutral,stimuli/28M_NE_C.BMP,stimuli/29M_NE_C.BMP,stimuli/28M_NE_C.BMP,stimuli/EmptyFrame.bmp,stimuli/RedFrame.bmp,2,Neutral,Male,3,1,1.0,139.5257110595703,139.5257110595703,0.0,143.51011657714844,143.51011657714844,0.0,142.52044677734375,142.52044677734375,0.0,1.0,1.0,0.0,'2',0.5837352871894836,0.5837352871894836,0.0,31.0
Neutral,stimuli/10F_NE_C.BMP,stimuli/10F_NE_C.BMP,stimuli/06F_NE_C.bmp,stimuli/EmptyFrame.bmp,stimuli/RedFrame.bmp,1,Neutral,Female,3,1,1.0,143.53329467773438,143.53329467773438,0.0,147.52713012695312,147.52713012695312,0.0,146.53857421875,146.53857421875,0.0,1.0,1.0,0.0,'1',0.5457438826560974,0.5457438826560974,0.0,32.0
MatchFaces,stimuli/MatchFaces.bmp,stimuli/EmptyFace.bmp,stimuli/EmptyFace.bmp,stimuli/EmptyFrame.bmp,stimuli/EmptyFrame.bmp,Null,None,None,3,1,1.0,147.69090270996094,147.69090270996094,0.0,151.53811645507812,151.53811645507812,0.0,150.5497283935547,150.5497283935547,0.0,0.0,0.0,0.0,,,,,33.0
Fear,stimuli/07F_FE_O.BMP,stimuli/07F_FE_O.BMP,stimuli/14F_FE_O.BMP,stimuli/EmptyFrame.bmp,stimuli/RedFrame.bmp,1,Fear,Female,3,1,1.0,151.58819580078125,151.58819580078125,0.0,155.5589141845703,155.5589141845703,0.0,154.56285095214844,154.56285095214844,0.0,1.0,1.0,0.0,'1',0.8378947973251343,0.8378947973251343,0.0,34.0
Fear,stimuli/25M_FE_O.BMP,stimuli/29M_FE_O.BMP,stimuli/25M_FE_O.BMP,stimuli/EmptyFrame.bmp,stimuli/RedFrame.bmp,2,Fear,Male,3,1,1.0,155.58558654785156,155.58558654785156,0.0,159.57846069335938,159.57846069335938,0.0,158.5900115966797,158.5900115966797,0.0,1.0,1.0,0.0,'2',0.7830712795257568,0.7830712795257568,0.0,35.0
Fear,stimuli/26M_FE_O.BMP,stimuli/26M_FE_O.BMP,stimuli/28M_FE_O.BMP,stimuli/EmptyFrame.bmp,stimuli/RedFrame.bmp,1,Fear,Male,3,1,1.0,159.60528564453125,159.60528564453125,0.0,163.5908203125,163.5908203125,0.0,162.61026000976562,162.61026000976562,0.0,1.0,1.0,0.0,'1',0.5983005166053772,0.5983005166053772,0.0,36.0
Fear,stimuli/08F_FE_O.BMP,stimuli/13F_FE_O.BMP,stimuli/08F_FE_O.BMP,stimuli/EmptyFrame.bmp,stimuli/RedFrame.bmp,2,Fear,Female,3,1,1.0,163.61964416503906,163.61964416503906,0.0,167.60980224609375,167.60980224609375,0.0,166.61839294433594,166.61839294433594,0.0,1.0,1.0,0.0,'2',0.6900476813316345,0.6900476813316345,0.0,37.0
Fear,stimuli/09F_FE_O.BMP,stimuli/09F_FE_O.BMP,stimuli/12F_FE_O.BMP,stimuli/EmptyFrame.bmp,stimuli/RedFrame.bmp,1,Fear,Female,3,1,1.0,167.63485717773438,167.63485717773438,0.0,171.62069702148438,171.62069702148438,0.0,170.63912963867188,170.63912963867188,0.0,1.0,1.0,0.0,'1',0.5321980118751526,0.5321980118751526,0.0,38.0
Fear,stimuli/27M_FE_O.BMP,stimuli/26M_FE_O.BMP,stimuli/27M_FE_O.BMP,stimuli/EmptyFrame.bmp,stimuli/RedFrame.bmp,2,Fear,Male,3,1,1.0,171.643310546875,171.643310546875,0.0,175.63909912109375,175.63909912109375,0.0,174.63931274414062,174.63931274414062,0.0,1.0,1.0,0.0,'2',0.5328183770179749,0.5328183770179749,0.0,39.0
Fear,stimuli/28M_FE_O.BMP,stimuli/28M_FE_O.BMP,stimuli/25M_FE_O.BMP,stimuli/EmptyFrame.bmp,stimuli/RedFrame.bmp,1,Fear,Male,3,1,1.0,175.65879821777344,175.65879821777344,0.0,179.6558074951172,179.6558074951172,0.0,178.6676025390625,178.6676025390625,0.0,0.0,0.0,0.0,'2',0.8055099844932556,0.8055099844932556,0.0,40.0
Fear,stimuli/10F_FE_O.BMP,stimuli/11F_FE_O.BMP,stimuli/10F_FE_O.BMP,stimuli/EmptyFrame.bmp,stimuli/RedFrame.bmp,2,Fear,Female,3,1,1.0,179.6795654296875,179.6795654296875,0.0,183.67111206054688,183.67111206054688,0.0,182.68780517578125,182.68780517578125,0.0,1.0,1.0,0.0,'2',0.6874961256980896,0.6874961256980896,0.0,41.0
Fear,stimuli/29M_FE_O.BMP,stimuli/29M_FE_O.BMP,stimuli/24M_FE_O.BMP,stimuli/EmptyFrame.bmp,stimuli/RedFrame.bmp,1,Fear,Male,3,1,1.0,183.69839477539062,183.69839477539062,0.0,187.68563842773438,187.68563842773438,0.0,186.70626831054688,186.70626831054688,0.0,1.0,1.0,0.0,'1',0.8143051862716675,0.8143051862716675,0.0,42.0
Fear,stimuli/11F_FE_O.BMP,stimuli/10F_FE_O.BMP,stimuli/11F_FE_O.BMP,stimuli/EmptyFrame.bmp,stimuli/RedFrame.bmp,2,Fear,Female,3,1,1.0,187.70643615722656,187.70643615722656,0.0,191.69686889648438,191.69686889648438,0.0,190.71287536621094,190.71287536621094,0.0,1.0,1.0,0.0,'2',0.8295354843139648,0.8295354843139648,0.0,43.0
MatchFaces,stimuli/MatchFaces.bmp,stimuli/EmptyFace.bmp,stimuli/EmptyFace.bmp,stimuli/EmptyFrame.bmp,stimuli/EmptyFrame.bmp,Null,None,None,3,1,1.0,191.85488891601562,191.85488891601562,0.0,195.7035675048828,195.7035675048828,0.0,194.71388244628906,194.71388244628906,0.0,0.0,0.0,0.0,,,,,44.0
Happy,stimuli/19F_HA_O.BMP,stimuli/19F_HA_O.BMP,stimuli/18F_HA_O.BMP,stimuli/EmptyFrame.bmp,stimuli/RedFrame.bmp,1,Happy,Female,3,1,1.0,195.7510528564453,195.7510528564453,0.0,199.72085571289062,199.72085571289062,0.0,198.7285614013672,198.7285614013672,0.0,1.0,1.0,0.0,'1',0.9540933966636658,0.9540933966636658,0.0,45.0
Happy,stimuli/17F_HA_O.BMP,stimuli/16F_HA_O.BMP,stimuli/17F_HA_O.BMP,stimuli/EmptyFrame.bmp,stimuli/RedFrame.bmp,2,Happy,Female,3,1,1.0,199.74887084960938,199.74887084960938,0.0,203.7392578125,203.7392578125,0.0,202.75291442871094,202.75291442871094,0.0,1.0,1.0,0.0,'2',1.022517442703247,1.022517442703247,0.0,46.0
Happy,stimuli/43M_HA_O.BMP,stimuli/42M_HA_O.BMP,stimuli/43M_HA_O.BMP,stimuli/EmptyFrame.bmp,stimuli/RedFrame.bmp,2,Happy,Male,3,1,1.0,203.76571655273438,203.76571655273438,0.0,207.7493438720703,207.7493438720703,0.0,206.76382446289062,206.76382446289062,0.0,1.0,1.0,0.0,'2',0.7453601956367493,0.7453601956367493,0.0,47.0
Happy,stimuli/41M_HA_O.BMP,stimuli/41M_HA_O.BMP,stimuli/40M_HA_O.BMP,stimuli/EmptyFrame.bmp,stimuli/RedFrame.bmp,1,Happy,Male,3,1,1.0,207.77708435058594,207.77708435058594,0.0,211.7665252685547,211.7665252685547,0.0,210.77574157714844,210.77574157714844,0.0,1.0,1.0,0.0,'1',0.6911234259605408,0.6911234259605408,0.0,48.0
Happy,stimuli/15F_HA_O.BMP,stimuli/15F_HA_O.BMP,stimuli/14F_HA_O.BMP,stimuli/EmptyFrame.bmp,stimuli/RedFrame.bmp,1,Happy,Female,3,1,1.0,211.79132080078125,211.79132080078125,0.0,215.77650451660156,215.77650451660156,0.0,214.79119873046875,214.79119873046875,0.0,1.0,1.0,0.0,'1',0.7956593036651611,0.7956593036651611,0.0,49.0
Happy,stimuli/13F_HA_O.BMP,stimuli/13F_HA_O.BMP,stimuli/12F_HA_O.BMP,stimuli/EmptyFrame.bmp,stimuli/RedFrame.bmp,1,Happy,Female,3,1,1.0,215.80111694335938,215.80111694335938,0.0,219.7965850830078,219.7965850830078,0.0,218.8070526123047,218.8070526123047,0.0,1.0,1.0,0.0,'1',0.7653915286064148,0.7653915286064148,0.0,50.0
Happy,stimuli/39M_HA_O.BMP,stimuli/38M_HA_O.BMP,stimuli/39M_HA_O.BMP,stimuli/EmptyFrame.bmp,stimuli/RedFrame.bmp,2,Happy,Male,3,1,1.0,219.82350158691406,219.82350158691406,0.0,223.8112335205078,223.8112335205078,0.0,222.82254028320312,222.82254028320312,0.0,1.0,1.0,0.0,'2',0.7650244235992432,0.7650244235992432,0.0,51.0
Happy,stimuli/37M_HA_O.BMP,stimuli/37M_HA_O.BMP,stimuli/36M_HA_O.BMP,stimuli/EmptyFrame.bmp,stimuli/RedFrame.bmp,1,Happy,Male,3,1,1.0,223.83824157714844,223.83824157714844,0.0,227.82508850097656,227.82508850097656,0.0,226.8399200439453,226.8399200439453,0.0,1.0,1.0,0.0,'1',0.8950120806694031,0.8950120806694031,0.0,52.0
Happy,stimuli/35M_HA_O.BMP,stimuli/34M_HA_O.BMP,stimuli/35M_HA_O.BMP,stimuli/EmptyFrame.bmp,stimuli/RedFrame.bmp,2,Happy,Male,3,1,1.0,227.85031127929688,227.85031127929688,0.0,231.83950805664062,231.83950805664062,0.0,230.85443115234375,230.85443115234375,0.0,1.0,1.0,0.0,'2',0.840212881565094,0.840212881565094,0.0,53.0
Happy,stimuli/11F_HA_O.BMP,stimuli/10F_HA_O.BMP,stimuli/11F_HA_O.BMP,stimuli/EmptyFrame.bmp,stimuli/RedFrame.bmp,2,Happy,Female,3,1,1.0,231.86459350585938,231.86459350585938,0.0,235.8538055419922,235.8538055419922,0.0,234.85977172851562,234.85977172851562,0.0,1.0,1.0,0.0,'2',0.7231255769729614,0.7231255769729614,0.0,54.0
Match Shape,stimuli/MatchShapes.bmp,stimuli/EmptyFace.bmp,stimuli/EmptyFace.bmp,stimuli/EmptyFrame.bmp,stimuli/EmptyFrame.bmp,Null,None,None,3,1,1.0,235.87652587890625,235.87652587890625,0.0,239.85791015625,239.85791015625,0.0,238.87181091308594,238.87181091308594,0.0,0.0,0.0,0.0,,,,,55.0
Shape,stimuli/circle.bmp,stimuli/vertical.bmp,stimuli/circle.bmp,stimuli/EmptyFrame.bmp,stimuli/RedFrame.bmp,2,Shape,None,3,1,1.0,239.88790893554688,239.88790893554688,0.0,243.86923217773438,243.86923217773438,0.0,242.88206481933594,242.88206481933594,0.0,1.0,1.0,0.0,'2',0.8134198188781738,0.8134198188781738,0.0,56.0
Shape,stimuli/horizontal.bmp,stimuli/circle.bmp,stimuli/horizontal.bmp,stimuli/EmptyFrame.bmp,stimuli/RedFrame.bmp,2,Shape,None,3,1,1.0,243.89178466796875,243.89178466796875,0.0,247.88314819335938,247.88314819335938,0.0,246.904052734375,246.904052734375,0.0,1.0,1.0,0.0,'2',0.8453930020332336,0.8453930020332336,0.0,57.0
Shape,stimuli/vertical.bmp,stimuli/vertical.bmp,stimuli/horizontal.bmp,stimuli/EmptyFrame.bmp,stimuli/RedFrame.bmp,1,Shape,None,3,1,1.0,247.90283203125,247.90283203125,0.0,251.902099609375,251.902099609375,0.0,250.91432189941406,250.91432189941406,0.0,1.0,1.0,0.0,'1',0.7428134083747864,0.7428134083747864,0.0,58.0
Shape,stimuli/horizontal.bmp,stimuli/circle.bmp,stimuli/horizontal.bmp,stimuli/EmptyFrame.bmp,stimuli/RedFrame.bmp,2,Shape,None,3,1,1.0,251.92625427246094,251.92625427246094,0.0,255.91213989257812,255.91213989257812,0.0,254.93096923828125,254.93096923828125,0.0,1.0,1.0,0.0,'2',0.6969724297523499,0.6969724297523499,0.0,59.0
Shape,stimuli/horizontal.bmp,stimuli/horizontal.bmp,stimuli/vertical.bmp,stimuli/EmptyFrame.bmp,stimuli/RedFrame.bmp,1,Shape,None,3,1,1.0,255.93153381347656,255.93153381347656,0.0,259.92138671875,259.92138671875,0.0,258.9367980957031,258.9367980957031,0.0,1.0,1.0,0.0,'1',0.8227022290229797,0.8227022290229797,0.0,60.0
Shape,stimuli/vertical.bmp,stimuli/vertical.bmp,stimuli/circle.bmp,stimuli/EmptyFrame.bmp,stimuli/RedFrame.bmp,1,Shape,None,3,1,1.0,259.94171142578125,259.94171142578125,0.0,263.9335021972656,263.9335021972656,0.0,262.9444885253906,262.9444885253906,0.0,1.0,1.0,0.0,'1',0.6248316764831543,0.6248316764831543,0.0,61.0
Shape,stimuli/circle.bmp,stimuli/horizontal.bmp,stimuli/circle.bmp,stimuli/EmptyFrame.bmp,stimuli/RedFrame.bmp,2,Shape,None,3,1,1.0,263.9532165527344,263.9532165527344,0.0,267.9429931640625,267.9429931640625,0.0,266.960205078125,266.960205078125,0.0,1.0,1.0,0.0,'2',0.6178687810897827,0.6178687810897827,0.0,62.0
Shape,stimuli/circle.bmp,stimuli/vertical.bmp,stimuli/circle.bmp,stimuli/EmptyFrame.bmp,stimuli/RedFrame.bmp,2,Shape,None,3,1,1.0,267.96466064453125,267.96466064453125,0.0,271.9610595703125,271.9610595703125,0.0,270.97271728515625,270.97271728515625,0.0,1.0,1.0,0.0,'2',0.7278426885604858,0.7278426885604858,0.0,63.0
Shape,stimuli/vertical.bmp,stimuli/vertical.bmp,stimuli/horizontal.bmp,stimuli/EmptyFrame.bmp,stimuli/RedFrame.bmp,1,Shape,None,3,1,1.0,271.9833984375,271.9833984375,0.0,275.9771423339844,275.9771423339844,0.0,274.9913024902344,274.9913024902344,0.0,1.0,1.0,0.0,'1',0.8701273798942566,0.8701273798942566,0.0,64.0
Shape,stimuli/horizontal.bmp,stimuli/horizontal.bmp,stimuli/circle.bmp,stimuli/EmptyFrame.bmp,stimuli/RedFrame.bmp,1,Shape,None,3,1,1.0,275.9966735839844,275.9966735839844,0.0,279.9908142089844,279.9908142089844,0.0,279.00537109375,279.00537109375,0.0,1.0,1.0,0.0,'1',0.7071133255958557,0.7071133255958557,0.0,65.0
MatchFaces,stimuli/MatchFaces.bmp,stimuli/EmptyFace.bmp,stimuli/EmptyFace.bmp,stimuli/EmptyFrame.bmp,stimuli/EmptyFrame.bmp,Null,None,None,3,1,1.0,280.1509704589844,280.1509704589844,0.0,284.0003662109375,284.0003662109375,0.0,283.0064392089844,283.0064392089844,0.0,0.0,0.0,0.0,,,,,66.0
Anger,stimuli/42M_AN_O.BMP,stimuli/42M_AN_O.BMP,stimuli/43M_AN_O.BMP,stimuli/EmptyFrame.bmp,stimuli/RedFrame.bmp,1,Anger,Male,3,1,1.0,284.0513000488281,284.0513000488281,0.0,288.0145263671875,288.0145263671875,0.0,287.0258483886719,287.0258483886719,0.0,1.0,1.0,0.0,'1',0.7800577282905579,0.7800577282905579,0.0,67.0
Anger,stimuli/07F_AN_O.BMP,stimuli/07F_AN_O.BMP,stimuli/14F_AN_O.BMP,stimuli/EmptyFrame.bmp,stimuli/RedFrame.bmp,1,Anger,Female,3,1,1.0,288.04180908203125,288.04180908203125,0.0,292.02276611328125,292.02276611328125,0.0,291.0422668457031,291.0422668457031,0.0,1.0,1.0,0.0,'1',0.8053591847419739,0.8053591847419739,0.0,68.0
Anger,stimuli/40M_AN_O.BMP,stimuli/41M_AN_O.BMP,stimuli/40M_AN_O.BMP,stimuli/EmptyFrame.bmp,stimuli/RedFrame.bmp,2,Anger,Male,3,1,1.0,292.05078125,292.05078125,0.0,296.03564453125,296.03564453125,0.0,295.04913330078125,295.04913330078125,0.0,1.0,1.0,0.0,'2',0.7006517052650452,0.7006517052650452,0.0,69.0
Anger,stimuli/38M_AN_O.BMP,stimuli/39M_AN_O.BMP,stimuli/38M_AN_O.BMP,stimuli/EmptyFrame.bmp,stimuli/RedFrame.bmp,2,Anger,Male,3,1,1.0,296.0636291503906,296.0636291503906,0.0,300.05316162109375,300.05316162109375,0.0,299.0619201660156,299.0619201660156,0.0,1.0,1.0,0.0,'2',0.9654353857040405,0.9654353857040405,0.0,70.0
Anger,stimuli/08F_AN_O.BMP,stimuli/08F_AN_O.BMP,stimuli/13F_AN_O.BMP,stimuli/EmptyFrame.bmp,stimuli/RedFrame.bmp,1,Anger,Female,3,1,1.0,300.08123779296875,300.08123779296875,0.0,304.0754089355469,304.0754089355469,0.0,303.08807373046875,303.08807373046875,0.0,1.0,1.0,0.0,'1',0.7996991276741028,0.7996991276741028,0.0,71.0
Anger,stimuli/36M_AN_O.BMP,stimuli/37M_AN_O.BMP,stimuli/36M_AN_O.BMP,stimuli/EmptyFrame.bmp,stimuli/RedFrame.bmp,2,Anger,Male,3,1,1.0,304.1039733886719,304.1039733886719,0.0,308.0859375,308.0859375,0.0,307.0982360839844,307.0982360839844,0.0,1.0,1.0,0.0,'2',0.7586138248443604,0.7586138248443604,0.0,72.0
Anger,stimuli/09F_AN_O.BMP,stimuli/12F_AN_O.BMP,stimuli/09F_AN_O.BMP,stimuli/EmptyFrame.bmp,stimuli/RedFrame.bmp,2,Anger,Female,3,1,1.0,308.1529235839844,308.1529235839844,0.0,312.1053466796875,312.1053466796875,0.0,311.11077880859375,311.11077880859375,0.0,1.0,1.0,0.0,'2',0.686165988445282,0.686165988445282,0.0,73.0
Anger,stimuli/34M_AN_O.BMP,stimuli/35M_AN_O.BMP,stimuli/34M_AN_O.BMP,stimuli/EmptyFrame.bmp,stimuli/RedFrame.bmp,2,Anger,Male,3,1,1.0,312.1289978027344,312.1289978027344,0.0,316.12396240234375,316.12396240234375,0.0,315.1268615722656,315.1268615722656,0.0,1.0,1.0,0.0,'2',0.6272333264350891,0.6272333264350891,0.0,74.0
Anger,stimuli/10F_AN_O.BMP,stimuli/10F_AN_O.BMP,stimuli/11F_AN_O.BMP,stimuli/EmptyFrame.bmp,stimuli/RedFrame.bmp,1,Anger,Female,3,1,1.0,316.1507873535156,316.1507873535156,0.0,320.15234375,320.15234375,0.0,319.1553955078125,319.1553955078125,0.0,1.0,1.0,0.0,'1',0.5848274827003479,0.5848274827003479,0.0,75.0
Anger,stimuli/12F_AN_O.BMP,stimuli/12F_AN_O.BMP,stimuli/13F_AN_O.BMP,stimuli/EmptyFrame.bmp,stimuli/RedFrame.bmp,1,Anger,Female,3,1,1.0,320.1767883300781,320.1767883300781,0.0,324.1648864746094,324.1648864746094,0.0,323.1872863769531,323.1872863769531,0.0,1.0,1.0,0.0,'1',0.7290464043617249,0.7290464043617249,0.0,76.0
MatchFaces,stimuli/MatchFaces.bmp,stimuli/EmptyFace.bmp,stimuli/EmptyFace.bmp,stimuli/EmptyFrame.bmp,stimuli/EmptyFrame.bmp,Null,None,None,3,1,1.0,324.3714599609375,324.3714599609375,0.0,328.1713562011719,328.1713562011719,0.0,327.17138671875,327.17138671875,0.0,0.0,0.0,0.0,,,,,77.0
Happy,stimuli/20M_HA_O.BMP,stimuli/21M_HA_O.BMP,stimuli/20M_HA_O.BMP,stimuli/EmptyFrame.bmp,stimuli/RedFrame.bmp,2,Happy,Male,3,1,1.0,328.2231140136719,328.2231140136719,0.0,332.1830749511719,332.1830749511719,0.0,331.2004699707031,331.2004699707031,0.0,1.0,1.0,0.0,'2',0.8472015857696533,0.8472015857696533,0.0,78.0
Happy,stimuli/01F_HA_O.bmp,stimuli/01F_HA_O.bmp,stimuli/02F_HA_O.bmp,stimuli/EmptyFrame.bmp,stimuli/RedFrame.bmp,1,Happy,Female,3,1,1.0,332.2056884765625,332.2056884765625,0.0,336.2003479003906,336.2003479003906,0.0,335.2075500488281,335.2075500488281,0.0,1.0,1.0,0.0,'1',0.6160644292831421,0.6160644292831421,0.0,79.0
Happy,stimuli/22M_HA_O.BMP,stimuli/23M_HA_O.BMP,stimuli/22M_HA_O.BMP,stimuli/EmptyFrame.bmp,stimuli/RedFrame.bmp,2,Happy,Male,3,1,1.0,336.2264404296875,336.2264404296875,0.0,340.2196044921875,340.2196044921875,0.0,339.2274169921875,339.2274169921875,0.0,1.0,1.0,0.0,'2',0.9511001110076904,0.9511001110076904,0.0,80.0
Happy,stimuli/24M_HA_O.BMP,stimuli/24M_HA_O.BMP,stimuli/25M_HA_O.BMP,stimuli/EmptyFrame.bmp,stimuli/RedFrame.bmp,1,Happy,Male,3,1,1.0,340.25274658203125,340.25274658203125,0.0,344.2415466308594,344.2415466308594,0.0,343.24578857421875,343.24578857421875,0.0,1.0,1.0,0.0,'1',0.6571089029312134,0.6571089029312134,0.0,81.0
Happy,stimuli/03F_HA_O.bmp,stimuli/05F_HA_O.bmp,stimuli/03F_HA_O.bmp,stimuli/EmptyFrame.bmp,stimuli/RedFrame.bmp,2,Happy,Female,3,1,1.0,344.26470947265625,344.26470947265625,0.0,348.257080078125,348.257080078125,0.0,347.2633972167969,347.2633972167969,0.0,1.0,1.0,0.0,'2',0.5418331027030945,0.5418331027030945,0.0,82.0
Happy,stimuli/26M_HA_O.BMP,stimuli/26M_HA_O.BMP,stimuli/27M_HA_O.BMP,stimuli/EmptyFrame.bmp,stimuli/RedFrame.bmp,1,Happy,Male,3,1,1.0,348.2850341796875,348.2850341796875,0.0,352.2700500488281,352.2700500488281,0.0,351.2895812988281,351.2895812988281,0.0,1.0,1.0,0.0,'1',0.7949727177619934,0.7949727177619934,0.0,83.0
Happy,stimuli/06F_HA_O.bmp,stimuli/07F_HA_O.BMP,stimuli/06F_HA_O.bmp,stimuli/EmptyFrame.bmp,stimuli/RedFrame.bmp,2,Happy,Female,3,1,1.0,352.2923583984375,352.2923583984375,0.0,356.29107666015625,356.29107666015625,0.0,355.28912353515625,355.28912353515625,0.0,1.0,1.0,0.0,'2',0.6397010087966919,0.6397010087966919,0.0,84.0
Happy,stimuli/08F_HA_O.BMP,stimuli/08F_HA_O.BMP,stimuli/09F_HA_O.BMP,stimuli/EmptyFrame.bmp,stimuli/RedFrame.bmp,1,Happy,Female,3,1,1.0,356.3188171386719,356.3188171386719,0.0,360.302978515625,360.302978515625,0.0,359.31365966796875,359.31365966796875,0.0,1.0,1.0,0.0,'1',1.061570405960083,1.061570405960083,0.0,85.0
Happy,stimuli/28M_HA_O.BMP,stimuli/29M_HA_O.BMP,stimuli/28M_HA_O.BMP,stimuli/EmptyFrame.bmp,stimuli/RedFrame.bmp,2,Happy,Male,3,1,1.0,360.3627014160156,360.3627014160156,0.0,364.31390380859375,364.31390380859375,0.0,363.3365783691406,363.3365783691406,0.0,1.0,1.0,0.0,'2',0.5864667892456055,0.5864667892456055,0.0,86.0
Happy,stimuli/10F_HA_O.BMP,stimuli/10F_HA_O.BMP,stimuli/06F_HA_O.bmp,stimuli/EmptyFrame.bmp,stimuli/RedFrame.bmp,1,Happy,Female,3,1,1.0,364.3359375,364.3359375,0.0,368.33062744140625,368.33062744140625,0.0,367.3374938964844,367.3374938964844,0.0,1.0,1.0,0.0,'1',0.584814190864563,0.584814190864563,0.0,87.0
MatchFaces,stimuli/MatchFaces.bmp,stimuli/EmptyFace.bmp,stimuli/EmptyFace.bmp,stimuli/EmptyFrame.bmp,stimuli/EmptyFrame.bmp,Null,None,None,3,1,1.0,368.5303955078125,368.5303955078125,0.0,372.3372802734375,372.3372802734375,0.0,371.3476867675781,371.3476867675781,0.0,0.0,0.0,0.0,,,,,88.0
Neutral,stimuli/07F_NE_C.BMP,stimuli/07F_NE_C.BMP,stimuli/14F_NE_C.BMP,stimuli/EmptyFrame.bmp,stimuli/RedFrame.bmp,1,Neutral,Female,3,1,1.0,372.4005126953125,372.4005126953125,0.0,376.3573303222656,376.3573303222656,0.0,375.37591552734375,375.37591552734375,0.0,1.0,1.0,0.0,'1',0.6018505096435547,0.6018505096435547,0.0,89.0
Neutral,stimuli/25M_NE_C.BMP,stimuli/29M_NE_C.BMP,stimuli/25M_NE_C.BMP,stimuli/EmptyFrame.bmp,stimuli/RedFrame.bmp,2,Neutral,Male,3,1,1.0,376.38116455078125,376.38116455078125,0.0,380.369384765625,380.369384765625,0.0,379.397216796875,379.397216796875,0.0,1.0,1.0,0.0,'2',0.6294267177581787,0.6294267177581787,0.0,90.0
Neutral,stimuli/26M_NE_C.BMP,stimuli/26M_NE_C.BMP,stimuli/28M_NE_C.BMP,stimuli/EmptyFrame.bmp,stimuli/RedFrame.bmp,1,Neutral,Male,3,1,1.0,380.39239501953125,380.39239501953125,0.0,384.3843078613281,384.3843078613281,0.0,383.40325927734375,383.40325927734375,0.0,1.0,1.0,0.0,'1',0.5820316076278687,0.5820316076278687,0.0,91.0
Neutral,stimuli/08F_NE_C.BMP,stimuli/13F_NE_C.BMP,stimuli/08F_NE_C.BMP,stimuli/EmptyFrame.bmp,stimuli/RedFrame.bmp,2,Neutral,Female,3,1,1.0,384.4065856933594,384.4065856933594,0.0,388.40277099609375,388.40277099609375,0.0,387.4070739746094,387.4070739746094,0.0,1.0,1.0,0.0,'2',0.6319499015808105,0.6319499015808105,0.0,92.0
Neutral,stimuli/09F_NE_C.BMP,stimuli/09F_NE_C.BMP,stimuli/12F_NE_C.BMP,stimuli/EmptyFrame.bmp,stimuli/RedFrame.bmp,1,Neutral,Female,3,1,1.0,388.4276428222656,388.4276428222656,0.0,392.4172058105469,392.4172058105469,0.0,391.4248046875,391.4248046875,0.0,1.0,1.0,0.0,'1',0.5914034843444824,0.5914034843444824,0.0,93.0
Neutral,stimuli/27M_NE_C.BMP,stimuli/26M_NE_C.BMP,stimuli/27M_NE_C.BMP,stimuli/EmptyFrame.bmp,stimuli/RedFrame.bmp,2,Neutral,Male,3,1,1.0,392.4374694824219,392.4374694824219,0.0,396.4291687011719,396.4291687011719,0.0,395.4508056640625,395.4508056640625,0.0,1.0,1.0,0.0,'2',0.6012126803398132,0.6012126803398132,0.0,94.0
Neutral,stimuli/28M_NE_C.BMP,stimuli/28M_NE_C.BMP,stimuli/25M_NE_C.BMP,stimuli/EmptyFrame.bmp,stimuli/RedFrame.bmp,1,Neutral,Male,3,1,1.0,396.4527893066406,396.4527893066406,0.0,400.4472351074219,400.4472351074219,0.0,399.4541931152344,399.4541931152344,0.0,1.0,1.0,0.0,'1',0.719050407409668,0.719050407409668,0.0,95.0
Neutral,stimuli/10F_NE_C.BMP,stimuli/11F_NE_C.BMP,stimuli/10F_NE_C.BMP,stimuli/EmptyFrame.bmp,stimuli/RedFrame.bmp,2,Neutral,Female,3,1,1.0,400.4710388183594,400.4710388183594,0.0,404.47149658203125,404.47149658203125,0.0,403.46746826171875,403.46746826171875,0.0,1.0,1.0,0.0,'2',0.5010190010070801,0.5010190010070801,0.0,96.0
Neutral,stimuli/29M_NE_C.BMP,stimuli/29M_NE_C.BMP,stimuli/24M_NE_C.BMP,stimuli/EmptyFrame.bmp,stimuli/RedFrame.bmp,1,Neutral,Male,3,1,1.0,404.49896240234375,404.49896240234375,0.0,408.48822021484375,408.48822021484375,0.0,407.4999084472656,407.4999084472656,0.0,1.0,1.0,0.0,'1',0.5601034164428711,0.5601034164428711,0.0,97.0
Neutral,stimuli/11F_NE_C.BMP,stimuli/10F_NE_C.BMP,stimuli/11F_NE_C.BMP,stimuli/EmptyFrame.bmp,stimuli/RedFrame.bmp,2,Neutral,Female,3,1,1.0,408.5124816894531,408.5124816894531,0.0,412.5018005371094,412.5018005371094,0.0,411.5214538574219,411.5214538574219,0.0,1.0,1.0,0.0,'2',0.5069336295127869,0.5069336295127869,0.0,98.0
MatchFaces,stimuli/MatchFaces.bmp,stimuli/EmptyFace.bmp,stimuli/EmptyFace.bmp,stimuli/EmptyFrame.bmp,stimuli/EmptyFrame.bmp,Null,None,None,3,1,1.0,412.6466979980469,412.6466979980469,0.0,416.50885009765625,416.50885009765625,0.0,415.5087890625,415.5087890625,0.0,0.0,0.0,0.0,,,,,99.0
Fear,stimuli/23M_FE_O.BMP,stimuli/23M_FE_O.BMP,stimuli/24M_FE_O.BMP,stimuli/EmptyFrame.bmp,stimuli/RedFrame.bmp,1,Fear,Male,3,1,1.0,416.5495910644531,416.5495910644531,0.0,420.5188293457031,420.5188293457031,0.0,419.53826904296875,419.53826904296875,0.0,1.0,1.0,0.0,'1',0.6084582805633545,0.6084582805633545,0.0,100.0
Fear,stimuli/19F_FE_O.BMP,stimuli/18F_FE_O.BMP,stimuli/19F_FE_O.BMP,stimuli/EmptyFrame.bmp,stimuli/RedFrame.bmp,2,Fear,Female,3,1,1.0,420.54498291015625,420.54498291015625,0.0,424.5311279296875,424.5311279296875,0.0,423.5430603027344,423.5430603027344,0.0,1.0,1.0,0.0,'2',0.6313742995262146,0.6313742995262146,0.0,101.0
Fear,stimuli/17F_FE_O.BMP,stimuli/17F_FE_O.BMP,stimuli/16F_FE_O.BMP,stimuli/EmptyFrame.bmp,stimuli/RedFrame.bmp,1,Fear,Female,3,1,1.0,424.556640625,424.556640625,0.0,428.5404357910156,428.5404357910156,0.0,427.5537109375,427.5537109375,0.0,1.0,1.0,0.0,'1',0.5763856172561646,0.5763856172561646,0.0,102.0
Fear,stimuli/15F_FE_O.BMP,stimuli/18F_FE_O.BMP,stimuli/15F_FE_O.BMP,stimuli/EmptyFrame.bmp,stimuli/RedFrame.bmp,2,Fear,Female,3,1,1.0,428.5632629394531,428.5632629394531,0.0,432.5539855957031,432.5539855957031,0.0,431.5668640136719,431.5668640136719,0.0,1.0,1.0,0.0,'2',0.78786700963974,0.78786700963974,0.0,103.0
Fear,stimuli/21M_FE_O.BMP,stimuli/21M_FE_O.BMP,stimuli/22M_FE_O.BMP,stimuli/EmptyFrame.bmp,stimuli/RedFrame.bmp,1,Fear,Male,3,1,1.0,432.5803527832031,432.5803527832031,0.0,436.5701599121094,436.5701599121094,0.0,435.5858154296875,435.5858154296875,0.0,1.0,1.0,0.0,'1',0.8308448791503906,0.8308448791503906,0.0,104.0
Fear,stimuli/29M_FE_O.BMP,stimuli/30M_FE_O.BMP,stimuli/29M_FE_O.BMP,stimuli/EmptyFrame.bmp,stimuli/RedFrame.bmp,2,Fear,Male,3,1,1.0,436.5946044921875,436.5946044921875,0.0,440.58489990234375,440.58489990234375,0.0,439.5948181152344,439.5948181152344,0.0,1.0,1.0,0.0,'2',0.5638120770454407,0.5638120770454407,0.0,105.0
Fear,stimuli/31M_FE_O.BMP,stimuli/31M_FE_O.BMP,stimuli/38M_FE_O.BMP,stimuli/EmptyFrame.bmp,stimuli/RedFrame.bmp,1,Fear,Male,3,1,1.0,440.6145935058594,440.6145935058594,0.0,444.6050720214844,444.6050720214844,0.0,443.61224365234375,443.61224365234375,0.0,1.0,1.0,0.0,'1',0.5342078804969788,0.5342078804969788,0.0,106.0
Fear,stimuli/09F_FE_O.BMP,stimuli/07F_FE_O.BMP,stimuli/09F_FE_O.BMP,stimuli/EmptyFrame.bmp,stimuli/RedFrame.bmp,2,Fear,Female,3,1,1.0,444.6290283203125,444.6290283203125,0.0,448.6230773925781,448.6230773925781,0.0,447.6338806152344,447.6338806152344,0.0,1.0,1.0,0.0,'2',0.6244068145751953,0.6244068145751953,0.0,107.0
Fear,stimuli/11F_FE_O.BMP,stimuli/12F_FE_O.BMP,stimuli/11F_FE_O.BMP,stimuli/EmptyFrame.bmp,stimuli/RedFrame.bmp,2,Fear,Female,3,1,1.0,448.64813232421875,448.64813232421875,0.0,452.63897705078125,452.63897705078125,0.0,451.65191650390625,451.65191650390625,0.0,1.0,1.0,0.0,'2',0.6068221926689148,0.6068221926689148,0.0,108.0
Fear,stimuli/34M_FE_O.BMP,stimuli/34M_FE_O.BMP,stimuli/33M_FE_O.BMP,stimuli/EmptyFrame.bmp,stimuli/RedFrame.bmp,1,Fear,Male,3,1,1.0,452.6667785644531,452.6667785644531,0.0,456.6490783691406,456.6490783691406,0.0,455.6629638671875,455.6629638671875,0.0,1.0,1.0,0.0,'1',1.3546370267868042,1.3546370267868042,0.0,109.0

extraInfo
participant,018
session,002
date,2025_Jul_11_0804
expName,HaririTask_Ver1
psychopyVersion,3.0.1
frameRate,None
