TrialType,Top,Left,Right,EmptyFrame,SelectedFrame,Correct,Emotion,Gender,TrialLength,FixationLength,trials.thisRepN,trials.thisTrialN,trials.thisN,trials.thisIndex,key_resp_starttask.keys,key_resp_starttask.rt,GCBeginningFixationStartTime,GCBeginningFixationEndTime,key_resp_trial.keys,key_resp_trial.corr,GCFaceStartTime,GCPostFaceFixationStartTime,GCPostFaceFixationEndTime,key_resp_trial.rt,GCEndingFixationStartTime,GCEndingFixationEndTime,participant,session,date,expName,psychopyVersion,frameRate,
,,,,,,,,,,,,,,,5,14.954021799996553,,,,,,,,,,,sub025,001,2025_Aug_05_0859,HaririTask_Ver1,3.0.1,None,
MatchFaces,stimuli/MatchFaces.bmp,stimuli/EmptyFace.bmp,stimuli/EmptyFace.bmp,stimuli/EmptyFrame.bmp,stimuli/EmptyFrame.bmp,Null,None,None,3,1,0,0,0,0,,,2.0000006770715117e-06,15.00518970000121,None,0,15.300830200001656,18.055647100001806,19.054166599999007,,,,sub025,001,2025_Aug_05_0859,HaririTask_Ver1,3.0.1,None,
Anger,stimuli/01F_AN_O.bmp,stimuli/19F_AN_O.BMP,stimuli/01F_AN_O.bmp,stimuli/EmptyFrame.bmp,stimuli/RedFrame.bmp,2,Anger,Female,3,1,0,1,1,1,,,,,2,1,19.232440200001292,22.085262799999327,23.06534510000347,0.8716418999974849,,,sub025,001,2025_Aug_05_0859,HaririTask_Ver1,3.0.1,None,
Anger,stimuli/02f_an_o.bmp,stimuli/18F_AN_O.BMP,stimuli/02f_an_o.bmp,stimuli/EmptyFrame.bmp,stimuli/RedFrame.bmp,2,Anger,Female,3,1,0,2,2,2,,,,,2,1,23.094651400002476,26.094589200001792,27.081199500004004,1.2257689000034588,,,sub025,001,2025_Aug_05_0859,HaririTask_Ver1,3.0.1,None,
Anger,stimuli/20M_AN_O.BMP,stimuli/34M_AN_O.BMP,stimuli/20M_AN_O.BMP,stimuli/EmptyFrame.bmp,stimuli/RedFrame.bmp,2,Anger,Male,3,1,0,3,3,3,,,,,2,1,27.112017500003276,30.10126300000411,31.090202899998985,1.4158510999986902,,,sub025,001,2025_Aug_05_0859,HaririTask_Ver1,3.0.1,None,
Anger,stimuli/03F_AN_O.bmp,stimuli/03F_AN_O.bmp,stimuli/17F_AN_O.BMP,stimuli/EmptyFrame.bmp,stimuli/RedFrame.bmp,1,Anger,Female,3,1,0,4,4,4,,,,,1,1,31.12180680000165,34.1104134000052,35.105491000002075,1.2467385999989347,,,sub025,001,2025_Aug_05_0859,HaririTask_Ver1,3.0.1,None,
Anger,stimuli/21M_AN_O.BMP,stimuli/21M_AN_O.BMP,stimuli/33M_AN_O.BMP,stimuli/EmptyFrame.bmp,stimuli/RedFrame.bmp,1,Anger,Male,3,1,0,5,5,5,,,,,1,1,35.13549420000345,38.136829100003524,39.12473290000344,1.3850703000061912,,,sub025,001,2025_Aug_05_0859,HaririTask_Ver1,3.0.1,None,
Anger,stimuli/22M_AN_O.BMP,stimuli/32M_AN_O.BMP,stimuli/22M_AN_O.BMP,stimuli/EmptyFrame.bmp,stimuli/RedFrame.bmp,2,Anger,Male,3,1,0,6,6,6,,,,,2,1,39.15512760000274,42.15845429999899,43.14222520000476,1.3708460999987437,,,sub025,001,2025_Aug_05_0859,HaririTask_Ver1,3.0.1,None,
Anger,stimuli/23M_AN_O.BMP,stimuli/23M_AN_O.BMP,stimuli/31M_AN_O.BMP,stimuli/EmptyFrame.bmp,stimuli/RedFrame.bmp,1,Anger,Male,3,1,0,7,7,7,,,,,1,1,43.1719893000045,46.17212020000443,47.15484190000279,1.3145113999999012,,,sub025,001,2025_Aug_05_0859,HaririTask_Ver1,3.0.1,None,
Anger,stimuli/05F_AN_O.bmp,stimuli/05F_AN_O.bmp,stimuli/16F_AN_O.BMP,stimuli/EmptyFrame.bmp,stimuli/RedFrame.bmp,1,Anger,Female,3,1,0,8,8,8,,,,,1,1,47.18630800000392,50.1744491999998,51.17223780000495,1.3331697000030545,,,sub025,001,2025_Aug_05_0859,HaririTask_Ver1,3.0.1,None,
Anger,stimuli/06F_AN_O.bmp,stimuli/15F_AN_O.BMP,stimuli/06F_AN_O.bmp,stimuli/EmptyFrame.bmp,stimuli/RedFrame.bmp,2,Anger,Female,3,1,0,9,9,9,,,,,2,1,51.20226399999956,54.204106000004685,55.19189120000374,1.2552871000007144,,,sub025,001,2025_Aug_05_0859,HaririTask_Ver1,3.0.1,None,
Anger,stimuli/24M_AN_O.BMP,stimuli/24M_AN_O.BMP,stimuli/30M_AN_O.BMP,stimuli/EmptyFrame.bmp,stimuli/RedFrame.bmp,1,Anger,Male,3,1,0,10,10,10,,,,,1,1,55.22354610000184,58.221403100003954,59.2066530000011,1.077243499996257,,,sub025,001,2025_Aug_05_0859,HaririTask_Ver1,3.0.1,None,
MatchShape,stimuli/MatchShapes.bmp,stimuli/EmptyFace.bmp,stimuli/EmptyFace.bmp,stimuli/EmptyFrame.bmp,stimuli/EmptyFrame.bmp,Null,None,None,3,1,0,11,11,11,,,,,None,0,59.23859700000321,62.213496700002,63.20816449999984,,,,sub025,001,2025_Aug_05_0859,HaririTask_Ver1,3.0.1,None,
Shape,stimuli/horizontal.bmp,stimuli/horizontal.bmp,stimuli/circle.bmp,stimuli/EmptyFrame.bmp,stimuli/RedFrame.bmp,1,Shape,None,3,1,0,12,12,12,,,,,1,1,63.245412500000384,66.23578800000541,67.22801280000567,0.9082465000028606,,,sub025,001,2025_Aug_05_0859,HaririTask_Ver1,3.0.1,None,
Shape,stimuli/vertical.bmp,stimuli/horizontal.bmp,stimuli/vertical.bmp,stimuli/EmptyFrame.bmp,stimuli/RedFrame.bmp,2,Shape,None,3,1,0,13,13,13,,,,,2,1,67.25367290000577,70.2571270000044,71.24082370000542,0.9491705000036745,,,sub025,001,2025_Aug_05_0859,HaririTask_Ver1,3.0.1,None,
Shape,stimuli/horizontal.bmp,stimuli/horizontal.bmp,stimuli/vertical.bmp,stimuli/EmptyFrame.bmp,stimuli/RedFrame.bmp,1,Shape,None,3,1,0,14,14,14,,,,,1,1,71.26400450000074,74.26695100000506,75.25819369999954,0.8035192000024836,,,sub025,001,2025_Aug_05_0859,HaririTask_Ver1,3.0.1,None,
Shape,stimuli/horizontal.bmp,stimuli/circle.bmp,stimuli/horizontal.bmp,stimuli/EmptyFrame.bmp,stimuli/RedFrame.bmp,2,Shape,None,3,1,0,15,15,15,,,,,2,1,75.28098350000073,78.2876075000022,79.27079320000485,1.0546409000016865,,,sub025,001,2025_Aug_05_0859,HaririTask_Ver1,3.0.1,None,
Shape,stimuli/circle.bmp,stimuli/circle.bmp,stimuli/vertical.bmp,stimuli/EmptyFrame.bmp,stimuli/RedFrame.bmp,1,Shape,None,3,1,0,16,16,16,,,,,1,1,79.29517940000369,82.30367220000335,83.29277900000307,1.0391885999997612,,,sub025,001,2025_Aug_05_0859,HaririTask_Ver1,3.0.1,None,
Shape,stimuli/circle.bmp,stimuli/circle.bmp,stimuli/horizontal.bmp,stimuli/EmptyFrame.bmp,stimuli/RedFrame.bmp,1,Shape,None,3,1,0,17,17,17,,,,,1,1,83.31838160000189,86.31773180000164,87.31292080000276,0.6883170000000973,,,sub025,001,2025_Aug_05_0859,HaririTask_Ver1,3.0.1,None,
Shape,stimuli/vertical.bmp,stimuli/circle.bmp,stimuli/vertical.bmp,stimuli/EmptyFrame.bmp,stimuli/RedFrame.bmp,2,Shape,None,3,1,0,18,18,18,,,,,2,1,87.33642650000547,90.34448360000533,91.33453120000195,0.7661095000003115,,,sub025,001,2025_Aug_05_0859,HaririTask_Ver1,3.0.1,None,
Shape,stimuli/circle.bmp,stimuli/vertical.bmp,stimuli/circle.bmp,stimuli/EmptyFrame.bmp,stimuli/RedFrame.bmp,2,Shape,None,3,1,0,19,19,19,,,,,2,1,91.35959559999901,94.35792070000025,95.34296620000532,0.857419400002982,,,sub025,001,2025_Aug_05_0859,HaririTask_Ver1,3.0.1,None,
Shape,stimuli/vertical.bmp,stimuli/horizontal.bmp,stimuli/vertical.bmp,stimuli/EmptyFrame.bmp,stimuli/RedFrame.bmp,2,Shape,None,3,1,0,20,20,20,,,,,2,1,95.36431390000507,98.3682633999997,99.35490199999913,1.105853399996704,,,sub025,001,2025_Aug_05_0859,HaririTask_Ver1,3.0.1,None,
Shape,stimuli/vertical.bmp,stimuli/vertical.bmp,stimuli/circle.bmp,stimuli/EmptyFrame.bmp,stimuli/RedFrame.bmp,1,Shape,None,3,1,0,21,21,21,,,,,1,1,99.37879960000282,102.39127530000405,103.37430400000449,0.7595928000009735,,,sub025,001,2025_Aug_05_0859,HaririTask_Ver1,3.0.1,None,
MatchFaces,stimuli/MatchFaces.bmp,stimuli/EmptyFace.bmp,stimuli/EmptyFace.bmp,stimuli/EmptyFrame.bmp,stimuli/EmptyFrame.bmp,Null,None,None,3,1,0,22,22,22,,,,,None,0,103.59377790000144,106.38474710000446,107.38427020000381,,,,sub025,001,2025_Aug_05_0859,HaririTask_Ver1,3.0.1,None,
Neutral,stimuli/20M_NE_C.BMP,stimuli/21M_NE_C.BMP,stimuli/20M_NE_C.BMP,stimuli/EmptyFrame.bmp,stimuli/RedFrame.bmp,2,Neutral,Male,3,1,0,23,23,23,,,,,2,1,107.44294400000217,110.41045740000118,111.3990077999988,2.0469350999992457,,,sub025,001,2025_Aug_05_0859,HaririTask_Ver1,3.0.1,None,
Neutral,stimuli/01F_NE_C.bmp,stimuli/01F_NE_C.bmp,stimuli/02F_NE_C.bmp,stimuli/EmptyFrame.bmp,stimuli/RedFrame.bmp,1,Neutral,Female,3,1,0,24,24,24,,,,,1,1,111.43108100000245,114.42864990000089,115.41953440000361,0.9735462000026018,,,sub025,001,2025_Aug_05_0859,HaririTask_Ver1,3.0.1,None,
Neutral,stimuli/22M_NE_C.BMP,stimuli/23M_NE_C.BMP,stimuli/22M_NE_C.BMP,stimuli/EmptyFrame.bmp,stimuli/RedFrame.bmp,2,Neutral,Male,3,1,0,25,25,25,,,,,2,1,115.44755029999942,118.45050270000502,119.42939209999895,1.2746194999999716,,,sub025,001,2025_Aug_05_0859,HaririTask_Ver1,3.0.1,None,
Neutral,stimuli/24M_NE_C.BMP,stimuli/24M_NE_C.BMP,stimuli/25M_NE_C.BMP,stimuli/EmptyFrame.bmp,stimuli/RedFrame.bmp,1,Neutral,Male,3,1,0,26,26,26,,,,,1,1,119.45788810000522,122.46117149999918,123.44870549999905,1.2009882000056677,,,sub025,001,2025_Aug_05_0859,HaririTask_Ver1,3.0.1,None,
Neutral,stimuli/03F_NE_C.bmp,stimuli/05F_NE_C.bmp,stimuli/03F_NE_C.bmp,stimuli/EmptyFrame.bmp,stimuli/RedFrame.bmp,2,Neutral,Female,3,1,0,27,27,27,,,,,2,1,123.47762190000503,126.47103430000425,127.46938810000574,1.2287282999968738,,,sub025,001,2025_Aug_05_0859,HaririTask_Ver1,3.0.1,None,
Neutral,stimuli/26M_NE_C.BMP,stimuli/26M_NE_C.BMP,stimuli/27M_NE_C.BMP,stimuli/EmptyFrame.bmp,stimuli/RedFrame.bmp,1,Neutral,Male,3,1,0,28,28,28,,,,,1,1,127.49733480000577,130.50079350000306,131.48761540000123,0.9596932999993442,,,sub025,001,2025_Aug_05_0859,HaririTask_Ver1,3.0.1,None,
Neutral,stimuli/06F_NE_C.bmp,stimuli/07F_NE_C.BMP,stimuli/06F_NE_C.bmp,stimuli/EmptyFrame.bmp,stimuli/RedFrame.bmp,2,Neutral,Female,3,1,0,29,29,29,,,,,2,1,131.5148410000038,134.52070950000052,135.501282600002,1.1617028999971808,,,sub025,001,2025_Aug_05_0859,HaririTask_Ver1,3.0.1,None,
Neutral,stimuli/08F_NE_C.BMP,stimuli/08F_NE_C.BMP,stimuli/09F_NE_C.BMP,stimuli/EmptyFrame.bmp,stimuli/RedFrame.bmp,1,Neutral,Female,3,1,0,30,30,30,,,,,1,1,135.52653290000308,138.53080939999927,139.5181647999998,1.5630879000018467,,,sub025,001,2025_Aug_05_0859,HaririTask_Ver1,3.0.1,None,
Neutral,stimuli/28M_NE_C.BMP,stimuli/29M_NE_C.BMP,stimuli/28M_NE_C.BMP,stimuli/EmptyFrame.bmp,stimuli/RedFrame.bmp,2,Neutral,Male,3,1,0,31,31,31,,,,,2,1,139.54874910000217,142.541278100005,143.53097949999938,1.605209500005003,,,sub025,001,2025_Aug_05_0859,HaririTask_Ver1,3.0.1,None,
Neutral,stimuli/10F_NE_C.BMP,stimuli/10F_NE_C.BMP,stimuli/06F_NE_C.bmp,stimuli/EmptyFrame.bmp,stimuli/RedFrame.bmp,1,Neutral,Female,3,1,0,32,32,32,,,,,1,1,143.55644680000114,146.57029270000203,147.54403340000135,1.208131899998989,,,sub025,001,2025_Aug_05_0859,HaririTask_Ver1,3.0.1,None,
MatchFaces,stimuli/MatchFaces.bmp,stimuli/EmptyFace.bmp,stimuli/EmptyFace.bmp,stimuli/EmptyFrame.bmp,stimuli/EmptyFrame.bmp,Null,None,None,3,1,0,33,33,33,,,,,None,0,147.7548597999994,150.55045200000313,151.54995659999986,,,,sub025,001,2025_Aug_05_0859,HaririTask_Ver1,3.0.1,None,
Fear,stimuli/07F_FE_O.BMP,stimuli/07F_FE_O.BMP,stimuli/14F_FE_O.BMP,stimuli/EmptyFrame.bmp,stimuli/RedFrame.bmp,1,Fear,Female,3,1,0,34,34,34,,,,,1,1,151.60105119999935,154.57289660000242,155.56696219999867,1.6608273000019835,,,sub025,001,2025_Aug_05_0859,HaririTask_Ver1,3.0.1,None,
Fear,stimuli/25M_FE_O.BMP,stimuli/29M_FE_O.BMP,stimuli/25M_FE_O.BMP,stimuli/EmptyFrame.bmp,stimuli/RedFrame.bmp,2,Fear,Male,3,1,0,35,35,35,,,,,2,1,155.5919195000024,158.5898417999997,159.58633190000546,1.7474337000021478,,,sub025,001,2025_Aug_05_0859,HaririTask_Ver1,3.0.1,None,
Fear,stimuli/26M_FE_O.BMP,stimuli/26M_FE_O.BMP,stimuli/28M_FE_O.BMP,stimuli/EmptyFrame.bmp,stimuli/RedFrame.bmp,1,Fear,Male,3,1,0,36,36,36,,,,,1,1,159.61115340000106,162.61587270000018,163.5947243000046,1.3479380999997375,,,sub025,001,2025_Aug_05_0859,HaririTask_Ver1,3.0.1,None,
Fear,stimuli/08F_FE_O.BMP,stimuli/13F_FE_O.BMP,stimuli/08F_FE_O.BMP,stimuli/EmptyFrame.bmp,stimuli/RedFrame.bmp,2,Fear,Female,3,1,0,37,37,37,,,,,2,1,163.62899150000158,166.61990800000058,167.61455220000062,1.2793940999981714,,,sub025,001,2025_Aug_05_0859,HaririTask_Ver1,3.0.1,None,
Fear,stimuli/09F_FE_O.BMP,stimuli/09F_FE_O.BMP,stimuli/12F_FE_O.BMP,stimuli/EmptyFrame.bmp,stimuli/RedFrame.bmp,1,Fear,Female,3,1,0,38,38,38,,,,,1,1,167.6396425999992,170.6400053000034,171.62352510000346,1.261867399996845,,,sub025,001,2025_Aug_05_0859,HaririTask_Ver1,3.0.1,None,
Fear,stimuli/27M_FE_O.BMP,stimuli/26M_FE_O.BMP,stimuli/27M_FE_O.BMP,stimuli/EmptyFrame.bmp,stimuli/RedFrame.bmp,2,Fear,Male,3,1,0,39,39,39,,,,,2,1,171.65290770000138,174.65834010000253,175.63963750000403,1.1401505000030738,,,sub025,001,2025_Aug_05_0859,HaririTask_Ver1,3.0.1,None,
Fear,stimuli/28M_FE_O.BMP,stimuli/28M_FE_O.BMP,stimuli/25M_FE_O.BMP,stimuli/EmptyFrame.bmp,stimuli/RedFrame.bmp,1,Fear,Male,3,1,0,40,40,40,,,,,1,1,175.66265779999958,178.67069520000223,179.65106319999904,1.183075100001588,,,sub025,001,2025_Aug_05_0859,HaririTask_Ver1,3.0.1,None,
Fear,stimuli/10F_FE_O.BMP,stimuli/11F_FE_O.BMP,stimuli/10F_FE_O.BMP,stimuli/EmptyFrame.bmp,stimuli/RedFrame.bmp,2,Fear,Female,3,1,0,41,41,41,,,,,2,1,179.67376940000395,182.68206199999986,183.66361960000359,1.0030975000045146,,,sub025,001,2025_Aug_05_0859,HaririTask_Ver1,3.0.1,None,
Fear,stimuli/29M_FE_O.BMP,stimuli/29M_FE_O.BMP,stimuli/24M_FE_O.BMP,stimuli/EmptyFrame.bmp,stimuli/RedFrame.bmp,1,Fear,Male,3,1,0,42,42,42,,,,,1,1,183.694874300003,186.6860686,187.68709600000147,1.0625227999989875,,,sub025,001,2025_Aug_05_0859,HaririTask_Ver1,3.0.1,None,
Fear,stimuli/11F_FE_O.BMP,stimuli/10F_FE_O.BMP,stimuli/11F_FE_O.BMP,stimuli/EmptyFrame.bmp,stimuli/RedFrame.bmp,2,Fear,Female,3,1,0,43,43,43,,,,,2,1,187.70708040000318,190.71793170000456,191.6963867000013,1.0185685000033118,,,sub025,001,2025_Aug_05_0859,HaririTask_Ver1,3.0.1,None,
MatchFaces,stimuli/MatchFaces.bmp,stimuli/EmptyFace.bmp,stimuli/EmptyFace.bmp,stimuli/EmptyFrame.bmp,stimuli/EmptyFrame.bmp,Null,None,None,3,1,0,44,44,44,,,,,None,0,191.8743745000029,194.7044709000038,195.70000560000335,,,,sub025,001,2025_Aug_05_0859,HaririTask_Ver1,3.0.1,None,
Happy,stimuli/19F_HA_O.BMP,stimuli/19F_HA_O.BMP,stimuli/18F_HA_O.BMP,stimuli/EmptyFrame.bmp,stimuli/RedFrame.bmp,1,Happy,Female,3,1,0,45,45,45,,,,,1,1,195.75880920000054,198.73456010000518,199.711215000003,0.9174553999982891,,,sub025,001,2025_Aug_05_0859,HaririTask_Ver1,3.0.1,None,
Happy,stimuli/17F_HA_O.BMP,stimuli/16F_HA_O.BMP,stimuli/17F_HA_O.BMP,stimuli/EmptyFrame.bmp,stimuli/RedFrame.bmp,2,Happy,Female,3,1,0,46,46,46,,,,,2,1,199.7396904999987,202.73840410000412,203.72475470000063,1.0440189999935683,,,sub025,001,2025_Aug_05_0859,HaririTask_Ver1,3.0.1,None,
Happy,stimuli/43M_HA_O.BMP,stimuli/42M_HA_O.BMP,stimuli/43M_HA_O.BMP,stimuli/EmptyFrame.bmp,stimuli/RedFrame.bmp,2,Happy,Male,3,1,0,47,47,47,,,,,2,1,203.75089510000544,206.75736860000325,207.74073870000575,0.9787769000031403,,,sub025,001,2025_Aug_05_0859,HaririTask_Ver1,3.0.1,None,
Happy,stimuli/41M_HA_O.BMP,stimuli/41M_HA_O.BMP,stimuli/40M_HA_O.BMP,stimuli/EmptyFrame.bmp,stimuli/RedFrame.bmp,1,Happy,Male,3,1,0,48,48,48,,,,,1,1,207.80170940000244,210.7706235000005,211.75632630000473,1.1537277000024915,,,sub025,001,2025_Aug_05_0859,HaririTask_Ver1,3.0.1,None,
Happy,stimuli/15F_HA_O.BMP,stimuli/15F_HA_O.BMP,stimuli/14F_HA_O.BMP,stimuli/EmptyFrame.bmp,stimuli/RedFrame.bmp,1,Happy,Female,3,1,0,49,49,49,,,,,1,1,211.78546189999906,214.78752779999922,215.7679575000002,1.416945900004066,,,sub025,001,2025_Aug_05_0859,HaririTask_Ver1,3.0.1,None,
Happy,stimuli/13F_HA_O.BMP,stimuli/13F_HA_O.BMP,stimuli/12F_HA_O.BMP,stimuli/EmptyFrame.bmp,stimuli/RedFrame.bmp,1,Happy,Female,3,1,0,50,50,50,,,,,1,1,215.79347970000526,218.80000400000426,219.78261249999923,1.3831389999977546,,,sub025,001,2025_Aug_05_0859,HaririTask_Ver1,3.0.1,None,
Happy,stimuli/39M_HA_O.BMP,stimuli/38M_HA_O.BMP,stimuli/39M_HA_O.BMP,stimuli/EmptyFrame.bmp,stimuli/RedFrame.bmp,2,Happy,Male,3,1,0,51,51,51,,,,,2,1,219.80656350000208,222.80468370000017,223.8023145000043,1.425172900002508,,,sub025,001,2025_Aug_05_0859,HaririTask_Ver1,3.0.1,None,
Happy,stimuli/37M_HA_O.BMP,stimuli/37M_HA_O.BMP,stimuli/36M_HA_O.BMP,stimuli/EmptyFrame.bmp,stimuli/RedFrame.bmp,1,Happy,Male,3,1,0,52,52,52,,,,,1,1,223.83057019999978,226.8335634000032,227.82380040000135,1.2035875000001397,,,sub025,001,2025_Aug_05_0859,HaririTask_Ver1,3.0.1,None,
Happy,stimuli/35M_HA_O.BMP,stimuli/34M_HA_O.BMP,stimuli/35M_HA_O.BMP,stimuli/EmptyFrame.bmp,stimuli/RedFrame.bmp,2,Happy,Male,3,1,0,53,53,53,,,,,2,1,227.85240270000213,230.86039159999928,231.84154720000515,1.413636499994027,,,sub025,001,2025_Aug_05_0859,HaririTask_Ver1,3.0.1,None,
Happy,stimuli/11F_HA_O.BMP,stimuli/10F_HA_O.BMP,stimuli/11F_HA_O.BMP,stimuli/EmptyFrame.bmp,stimuli/RedFrame.bmp,2,Happy,Female,3,1,0,54,54,54,,,,,2,1,231.87068120000185,234.87036400000216,235.86210950000532,1.1735135999988415,,,sub025,001,2025_Aug_05_0859,HaririTask_Ver1,3.0.1,None,
Match Shape,stimuli/MatchShapes.bmp,stimuli/EmptyFace.bmp,stimuli/EmptyFace.bmp,stimuli/EmptyFrame.bmp,stimuli/EmptyFrame.bmp,Null,None,None,3,1,0,55,55,55,,,,,None,0,235.88816470000165,238.88218770000094,239.8649504999994,,,,sub025,001,2025_Aug_05_0859,HaririTask_Ver1,3.0.1,None,
Shape,stimuli/circle.bmp,stimuli/vertical.bmp,stimuli/circle.bmp,stimuli/EmptyFrame.bmp,stimuli/RedFrame.bmp,2,Shape,None,3,1,0,56,56,56,,,,,2,1,239.89551940000092,242.89280470000085,243.89896120000049,0.8924064000020735,,,sub025,001,2025_Aug_05_0859,HaririTask_Ver1,3.0.1,None,
Shape,stimuli/horizontal.bmp,stimuli/circle.bmp,stimuli/horizontal.bmp,stimuli/EmptyFrame.bmp,stimuli/RedFrame.bmp,2,Shape,None,3,1,0,57,57,57,,,,,2,1,243.92639430000418,246.9302314000015,247.90999170000578,0.9350069999927655,,,sub025,001,2025_Aug_05_0859,HaririTask_Ver1,3.0.1,None,
Shape,stimuli/vertical.bmp,stimuli/vertical.bmp,stimuli/horizontal.bmp,stimuli/EmptyFrame.bmp,stimuli/RedFrame.bmp,1,Shape,None,3,1,0,58,58,58,,,,,1,1,247.93432150000444,250.941539200001,251.93209390000266,0.9544664999993984,,,sub025,001,2025_Aug_05_0859,HaririTask_Ver1,3.0.1,None,
Shape,stimuli/horizontal.bmp,stimuli/circle.bmp,stimuli/horizontal.bmp,stimuli/EmptyFrame.bmp,stimuli/RedFrame.bmp,2,Shape,None,3,1,0,59,59,59,,,,,2,1,251.95542600000044,254.96348679999937,255.95070960000157,0.9870156999968458,,,sub025,001,2025_Aug_05_0859,HaririTask_Ver1,3.0.1,None,
Shape,stimuli/horizontal.bmp,stimuli/horizontal.bmp,stimuli/vertical.bmp,stimuli/EmptyFrame.bmp,stimuli/RedFrame.bmp,1,Shape,None,3,1,0,60,60,60,,,,,1,1,255.97214320000057,258.9738526000001,259.96426190000057,0.9047690000006696,,,sub025,001,2025_Aug_05_0859,HaririTask_Ver1,3.0.1,None,
Shape,stimuli/vertical.bmp,stimuli/vertical.bmp,stimuli/circle.bmp,stimuli/EmptyFrame.bmp,stimuli/RedFrame.bmp,1,Shape,None,3,1,0,61,61,61,,,,,1,1,259.98748960000376,262.9852935000017,263.98433659999864,0.899622899996757,,,sub025,001,2025_Aug_05_0859,HaririTask_Ver1,3.0.1,None,
Shape,stimuli/circle.bmp,stimuli/horizontal.bmp,stimuli/circle.bmp,stimuli/EmptyFrame.bmp,stimuli/RedFrame.bmp,2,Shape,None,3,1,0,62,62,62,,,,,2,1,264.00608680000005,267.0101100000029,267.9939111999993,1.084911199999624,,,sub025,001,2025_Aug_05_0859,HaririTask_Ver1,3.0.1,None,
Shape,stimuli/circle.bmp,stimuli/vertical.bmp,stimuli/circle.bmp,stimuli/EmptyFrame.bmp,stimuli/RedFrame.bmp,2,Shape,None,3,1,0,63,63,63,,,,,2,1,268.0170839000057,271.02033500000107,272.00535940000555,0.8937386000034166,,,sub025,001,2025_Aug_05_0859,HaririTask_Ver1,3.0.1,None,
Shape,stimuli/vertical.bmp,stimuli/vertical.bmp,stimuli/horizontal.bmp,stimuli/EmptyFrame.bmp,stimuli/RedFrame.bmp,1,Shape,None,3,1,0,64,64,64,,,,,1,1,272.0280669000058,275.0307739999989,276.0253780999992,0.9085374999995111,,,sub025,001,2025_Aug_05_0859,HaririTask_Ver1,3.0.1,None,
Shape,stimuli/horizontal.bmp,stimuli/horizontal.bmp,stimuli/circle.bmp,stimuli/EmptyFrame.bmp,stimuli/RedFrame.bmp,1,Shape,None,3,1,0,65,65,65,,,,,1,1,276.0521116000018,279.0542038000058,280.0464785000004,0.7255719999957364,,,sub025,001,2025_Aug_05_0859,HaririTask_Ver1,3.0.1,None,
MatchFaces,stimuli/MatchFaces.bmp,stimuli/EmptyFace.bmp,stimuli/EmptyFace.bmp,stimuli/EmptyFrame.bmp,stimuli/EmptyFrame.bmp,Null,None,None,3,1,0,66,66,66,,,,,None,0,280.23937039999873,283.0549494000006,284.04892370000016,,,,sub025,001,2025_Aug_05_0859,HaririTask_Ver1,3.0.1,None,
Anger,stimuli/42M_AN_O.BMP,stimuli/42M_AN_O.BMP,stimuli/43M_AN_O.BMP,stimuli/EmptyFrame.bmp,stimuli/RedFrame.bmp,1,Anger,Male,3,1,0,67,67,67,,,,,1,1,284.1161404000013,287.08075340000505,288.0686296999993,1.3686309999975492,,,sub025,001,2025_Aug_05_0859,HaririTask_Ver1,3.0.1,None,
Anger,stimuli/07F_AN_O.BMP,stimuli/07F_AN_O.BMP,stimuli/14F_AN_O.BMP,stimuli/EmptyFrame.bmp,stimuli/RedFrame.bmp,1,Anger,Female,3,1,0,68,68,68,,,,,1,1,288.0984924000004,291.09631660000014,292.0910117000021,1.0781267999991542,,,sub025,001,2025_Aug_05_0859,HaririTask_Ver1,3.0.1,None,
Anger,stimuli/40M_AN_O.BMP,stimuli/41M_AN_O.BMP,stimuli/40M_AN_O.BMP,stimuli/EmptyFrame.bmp,stimuli/RedFrame.bmp,2,Anger,Male,3,1,0,69,69,69,,,,,2,1,292.123099000004,295.12581760000467,296.1138016000041,0.9519271000026492,,,sub025,001,2025_Aug_05_0859,HaririTask_Ver1,3.0.1,None,
Anger,stimuli/38M_AN_O.BMP,stimuli/39M_AN_O.BMP,stimuli/38M_AN_O.BMP,stimuli/EmptyFrame.bmp,stimuli/RedFrame.bmp,2,Anger,Male,3,1,0,70,70,70,,,,,2,1,296.1431725000002,299.1430251999991,300.12979160000395,1.3885158999983105,,,sub025,001,2025_Aug_05_0859,HaririTask_Ver1,3.0.1,None,
Anger,stimuli/08F_AN_O.BMP,stimuli/08F_AN_O.BMP,stimuli/13F_AN_O.BMP,stimuli/EmptyFrame.bmp,stimuli/RedFrame.bmp,1,Anger,Female,3,1,0,71,71,71,,,,,1,1,300.1574508000049,303.1570462000018,304.14871259999927,0.9326334999932442,,,sub025,001,2025_Aug_05_0859,HaririTask_Ver1,3.0.1,None,
Anger,stimuli/36M_AN_O.BMP,stimuli/37M_AN_O.BMP,stimuli/36M_AN_O.BMP,stimuli/EmptyFrame.bmp,stimuli/RedFrame.bmp,2,Anger,Male,3,1,0,72,72,72,,,,,2,1,304.1766687000054,307.1823702000038,308.16482579999865,1.1750535000028322,,,sub025,001,2025_Aug_05_0859,HaririTask_Ver1,3.0.1,None,
Anger,stimuli/09F_AN_O.BMP,stimuli/12F_AN_O.BMP,stimuli/09F_AN_O.BMP,stimuli/EmptyFrame.bmp,stimuli/RedFrame.bmp,2,Anger,Female,3,1,0,73,73,73,,,,,2,1,308.1937758000058,311.19322130000364,312.186698000005,1.010293899998942,,,sub025,001,2025_Aug_05_0859,HaririTask_Ver1,3.0.1,None,
Anger,stimuli/34M_AN_O.BMP,stimuli/35M_AN_O.BMP,stimuli/34M_AN_O.BMP,stimuli/EmptyFrame.bmp,stimuli/RedFrame.bmp,2,Anger,Male,3,1,0,74,74,74,,,,,2,1,312.2136236000006,315.21057239999936,316.20226869999897,0.9732316000008723,,,sub025,001,2025_Aug_05_0859,HaririTask_Ver1,3.0.1,None,
Anger,stimuli/10F_AN_O.BMP,stimuli/10F_AN_O.BMP,stimuli/11F_AN_O.BMP,stimuli/EmptyFrame.bmp,stimuli/RedFrame.bmp,1,Anger,Female,3,1,0,75,75,75,,,,,1,1,316.22876990000077,319.23457630000485,320.2207656000028,1.028220499996678,,,sub025,001,2025_Aug_05_0859,HaririTask_Ver1,3.0.1,None,
Anger,stimuli/12F_AN_O.BMP,stimuli/12F_AN_O.BMP,stimuli/13F_AN_O.BMP,stimuli/EmptyFrame.bmp,stimuli/RedFrame.bmp,1,Anger,Female,3,1,0,76,76,76,,,,,1,1,320.24672880000435,323.2573212999996,324.2316618000041,0.8720638000013423,,,sub025,001,2025_Aug_05_0859,HaririTask_Ver1,3.0.1,None,
MatchFaces,stimuli/MatchFaces.bmp,stimuli/EmptyFace.bmp,stimuli/EmptyFace.bmp,stimuli/EmptyFrame.bmp,stimuli/EmptyFrame.bmp,Null,None,None,3,1,0,77,77,77,,,,,None,0,324.4055800999995,327.24906710000505,328.2336228999993,,,,sub025,001,2025_Aug_05_0859,HaririTask_Ver1,3.0.1,None,
Happy,stimuli/20M_HA_O.BMP,stimuli/21M_HA_O.BMP,stimuli/20M_HA_O.BMP,stimuli/EmptyFrame.bmp,stimuli/RedFrame.bmp,2,Happy,Male,3,1,0,78,78,78,,,,,2,1,328.2920387000049,331.27025040000444,332.2440390000047,1.5399239999969723,,,sub025,001,2025_Aug_05_0859,HaririTask_Ver1,3.0.1,None,
Happy,stimuli/01F_HA_O.bmp,stimuli/01F_HA_O.bmp,stimuli/02F_HA_O.bmp,stimuli/EmptyFrame.bmp,stimuli/RedFrame.bmp,1,Happy,Female,3,1,0,79,79,79,,,,,1,1,332.2740679999988,335.2673819000047,336.2602455000015,0.7832753999973647,,,sub025,001,2025_Aug_05_0859,HaririTask_Ver1,3.0.1,None,
Happy,stimuli/22M_HA_O.BMP,stimuli/23M_HA_O.BMP,stimuli/22M_HA_O.BMP,stimuli/EmptyFrame.bmp,stimuli/RedFrame.bmp,2,Happy,Male,3,1,0,80,80,80,,,,,2,1,336.2894903999986,339.2870339000001,340.27116060000117,1.1190690000003087,,,sub025,001,2025_Aug_05_0859,HaririTask_Ver1,3.0.1,None,
Happy,stimuli/24M_HA_O.BMP,stimuli/24M_HA_O.BMP,stimuli/25M_HA_O.BMP,stimuli/EmptyFrame.bmp,stimuli/RedFrame.bmp,1,Happy,Male,3,1,0,81,81,81,,,,,1,1,340.2980050000042,343.2986249000023,344.29481400000077,1.0441454000028898,,,sub025,001,2025_Aug_05_0859,HaririTask_Ver1,3.0.1,None,
Happy,stimuli/03F_HA_O.bmp,stimuli/05F_HA_O.bmp,stimuli/03F_HA_O.bmp,stimuli/EmptyFrame.bmp,stimuli/RedFrame.bmp,2,Happy,Female,3,1,0,82,82,82,,,,,2,1,344.3256207000013,347.3221876000025,348.31647070000326,1.2573351000028197,,,sub025,001,2025_Aug_05_0859,HaririTask_Ver1,3.0.1,None,
Happy,stimuli/26M_HA_O.BMP,stimuli/26M_HA_O.BMP,stimuli/27M_HA_O.BMP,stimuli/EmptyFrame.bmp,stimuli/RedFrame.bmp,1,Happy,Male,3,1,0,83,83,83,,,,,1,1,348.34662120000576,351.3384131999992,352.3379888999989,1.2606145999961882,,,sub025,001,2025_Aug_05_0859,HaririTask_Ver1,3.0.1,None,
Happy,stimuli/06F_HA_O.bmp,stimuli/07F_HA_O.BMP,stimuli/06F_HA_O.bmp,stimuli/EmptyFrame.bmp,stimuli/RedFrame.bmp,2,Happy,Female,3,1,0,84,84,84,,,,,2,1,352.3666983000003,355.36419990000286,356.3525176000039,0.9742780000015046,,,sub025,001,2025_Aug_05_0859,HaririTask_Ver1,3.0.1,None,
Happy,stimuli/08F_HA_O.BMP,stimuli/08F_HA_O.BMP,stimuli/09F_HA_O.BMP,stimuli/EmptyFrame.bmp,stimuli/RedFrame.bmp,1,Happy,Female,3,1,0,85,85,85,,,,,1,1,356.3871905000051,359.3844106000033,360.37563500000397,1.050867099998868,,,sub025,001,2025_Aug_05_0859,HaririTask_Ver1,3.0.1,None,
Happy,stimuli/28M_HA_O.BMP,stimuli/29M_HA_O.BMP,stimuli/28M_HA_O.BMP,stimuli/EmptyFrame.bmp,stimuli/RedFrame.bmp,2,Happy,Male,3,1,0,86,86,86,,,,,2,1,360.40498910000315,363.39815540000563,364.38583440000366,1.1163006000060705,,,sub025,001,2025_Aug_05_0859,HaririTask_Ver1,3.0.1,None,
Happy,stimuli/10F_HA_O.BMP,stimuli/10F_HA_O.BMP,stimuli/06F_HA_O.bmp,stimuli/EmptyFrame.bmp,stimuli/RedFrame.bmp,1,Happy,Female,3,1,0,87,87,87,,,,,1,1,364.4135202000034,367.4254179999989,368.41871820000233,0.8105249000000185,,,sub025,001,2025_Aug_05_0859,HaririTask_Ver1,3.0.1,None,
MatchFaces,stimuli/MatchFaces.bmp,stimuli/EmptyFace.bmp,stimuli/EmptyFace.bmp,stimuli/EmptyFrame.bmp,stimuli/EmptyFrame.bmp,Null,None,None,3,1,0,88,88,88,,,,,None,0,368.66130410000187,371.43440810000175,372.42283860000316,,,,sub025,001,2025_Aug_05_0859,HaririTask_Ver1,3.0.1,None,
Neutral,stimuli/07F_NE_C.BMP,stimuli/07F_NE_C.BMP,stimuli/14F_NE_C.BMP,stimuli/EmptyFrame.bmp,stimuli/RedFrame.bmp,1,Neutral,Female,3,1,0,89,89,89,,,,,1,1,372.48986480000167,375.4505286000058,376.437351200002,0.9577850999994553,,,sub025,001,2025_Aug_05_0859,HaririTask_Ver1,3.0.1,None,
Neutral,stimuli/25M_NE_C.BMP,stimuli/29M_NE_C.BMP,stimuli/25M_NE_C.BMP,stimuli/EmptyFrame.bmp,stimuli/RedFrame.bmp,2,Neutral,Male,3,1,0,90,90,90,,,,,2,1,376.4641441999993,379.47662290000153,380.46016970000346,0.795168199998443,,,sub025,001,2025_Aug_05_0859,HaririTask_Ver1,3.0.1,None,
Neutral,stimuli/26M_NE_C.BMP,stimuli/26M_NE_C.BMP,stimuli/28M_NE_C.BMP,stimuli/EmptyFrame.bmp,stimuli/RedFrame.bmp,1,Neutral,Male,3,1,0,91,91,91,,,,,1,1,380.4876291000037,383.48798830000305,384.4772198999999,0.9960997000016505,,,sub025,001,2025_Aug_05_0859,HaririTask_Ver1,3.0.1,None,
Neutral,stimuli/08F_NE_C.BMP,stimuli/13F_NE_C.BMP,stimuli/08F_NE_C.BMP,stimuli/EmptyFrame.bmp,stimuli/RedFrame.bmp,2,Neutral,Female,3,1,0,92,92,92,,,,,2,1,384.50442090000433,387.5197694000017,388.4898847000004,0.9008186999999452,,,sub025,001,2025_Aug_05_0859,HaririTask_Ver1,3.0.1,None,
Neutral,stimuli/09F_NE_C.BMP,stimuli/09F_NE_C.BMP,stimuli/12F_NE_C.BMP,stimuli/EmptyFrame.bmp,stimuli/RedFrame.bmp,1,Neutral,Female,3,1,0,93,93,93,,,,,1,1,388.51767060000566,391.519289200005,392.5110744000049,0.7184677999975975,,,sub025,001,2025_Aug_05_0859,HaririTask_Ver1,3.0.1,None,
Neutral,stimuli/27M_NE_C.BMP,stimuli/26M_NE_C.BMP,stimuli/27M_NE_C.BMP,stimuli/EmptyFrame.bmp,stimuli/RedFrame.bmp,2,Neutral,Male,3,1,0,94,94,94,,,,,2,1,392.53581269999995,395.53737840000394,396.53772500000196,1.1042126000029384,,,sub025,001,2025_Aug_05_0859,HaririTask_Ver1,3.0.1,None,
Neutral,stimuli/28M_NE_C.BMP,stimuli/28M_NE_C.BMP,stimuli/25M_NE_C.BMP,stimuli/EmptyFrame.bmp,stimuli/RedFrame.bmp,1,Neutral,Male,3,1,0,95,95,95,,,,,1,1,396.5605393000005,399.57264090000535,400.55817150000075,0.99242769999546,,,sub025,001,2025_Aug_05_0859,HaririTask_Ver1,3.0.1,None,
Neutral,stimuli/10F_NE_C.BMP,stimuli/11F_NE_C.BMP,stimuli/10F_NE_C.BMP,stimuli/EmptyFrame.bmp,stimuli/RedFrame.bmp,2,Neutral,Female,3,1,0,96,96,96,,,,,2,1,400.5875687000007,403.5898595000035,404.5719089000049,0.9108173999993596,,,sub025,001,2025_Aug_05_0859,HaririTask_Ver1,3.0.1,None,
Neutral,stimuli/29M_NE_C.BMP,stimuli/29M_NE_C.BMP,stimuli/24M_NE_C.BMP,stimuli/EmptyFrame.bmp,stimuli/RedFrame.bmp,1,Neutral,Male,3,1,0,97,97,97,,,,,1,1,404.5987469000029,407.6003195000012,408.5834197000004,0.7889166000022669,,,sub025,001,2025_Aug_05_0859,HaririTask_Ver1,3.0.1,None,
Neutral,stimuli/11F_NE_C.BMP,stimuli/10F_NE_C.BMP,stimuli/11F_NE_C.BMP,stimuli/EmptyFrame.bmp,stimuli/RedFrame.bmp,2,Neutral,Female,3,1,0,98,98,98,,,,,2,1,408.6080313000057,411.61307579999993,412.6095464000027,0.8810497000013129,,,sub025,001,2025_Aug_05_0859,HaririTask_Ver1,3.0.1,None,
MatchFaces,stimuli/MatchFaces.bmp,stimuli/EmptyFace.bmp,stimuli/EmptyFace.bmp,stimuli/EmptyFrame.bmp,stimuli/EmptyFrame.bmp,Null,None,None,3,1,0,99,99,99,,,,,None,0,412.82865980000497,415.6241586000033,416.61292620000313,,,,sub025,001,2025_Aug_05_0859,HaririTask_Ver1,3.0.1,None,
Fear,stimuli/23M_FE_O.BMP,stimuli/23M_FE_O.BMP,stimuli/24M_FE_O.BMP,stimuli/EmptyFrame.bmp,stimuli/RedFrame.bmp,1,Fear,Male,3,1,0,100,100,100,,,,,1,1,416.68591300000116,419.6374677000058,420.62362140000187,1.4060603999969317,,,sub025,001,2025_Aug_05_0859,HaririTask_Ver1,3.0.1,None,
Fear,stimuli/19F_FE_O.BMP,stimuli/18F_FE_O.BMP,stimuli/19F_FE_O.BMP,stimuli/EmptyFrame.bmp,stimuli/RedFrame.bmp,2,Fear,Female,3,1,0,101,101,101,,,,,2,1,420.6537692999991,423.6556180000043,424.6393609000006,0.7719101999973645,,,sub025,001,2025_Aug_05_0859,HaririTask_Ver1,3.0.1,None,
Fear,stimuli/17F_FE_O.BMP,stimuli/17F_FE_O.BMP,stimuli/16F_FE_O.BMP,stimuli/EmptyFrame.bmp,stimuli/RedFrame.bmp,1,Fear,Female,3,1,0,102,102,102,,,,,1,1,424.6653953999994,427.667835500004,428.65419349999866,0.9331935999944108,,,sub025,001,2025_Aug_05_0859,HaririTask_Ver1,3.0.1,None,
Fear,stimuli/15F_FE_O.BMP,stimuli/18F_FE_O.BMP,stimuli/15F_FE_O.BMP,stimuli/EmptyFrame.bmp,stimuli/RedFrame.bmp,2,Fear,Female,3,1,0,103,103,103,,,,,2,1,428.6806502000036,431.6895699000015,432.6655771000005,1.1197506000025896,,,sub025,001,2025_Aug_05_0859,HaririTask_Ver1,3.0.1,None,
Fear,stimuli/21M_FE_O.BMP,stimuli/21M_FE_O.BMP,stimuli/22M_FE_O.BMP,stimuli/EmptyFrame.bmp,stimuli/RedFrame.bmp,1,Fear,Male,3,1,0,104,104,104,,,,,1,1,432.69102060000296,435.69637330000114,436.678112900001,1.4510837999987416,,,sub025,001,2025_Aug_05_0859,HaririTask_Ver1,3.0.1,None,
Fear,stimuli/29M_FE_O.BMP,stimuli/30M_FE_O.BMP,stimuli/29M_FE_O.BMP,stimuli/EmptyFrame.bmp,stimuli/RedFrame.bmp,2,Fear,Male,3,1,0,105,105,105,,,,,2,1,436.706248100003,439.70799460000126,440.68981930000155,1.111831299996993,,,sub025,001,2025_Aug_05_0859,HaririTask_Ver1,3.0.1,None,
Fear,stimuli/31M_FE_O.BMP,stimuli/31M_FE_O.BMP,stimuli/38M_FE_O.BMP,stimuli/EmptyFrame.bmp,stimuli/RedFrame.bmp,1,Fear,Male,3,1,0,106,106,106,,,,,1,1,440.7199537999986,443.72152050000295,444.7137952000048,0.8397639999966486,,,sub025,001,2025_Aug_05_0859,HaririTask_Ver1,3.0.1,None,
Fear,stimuli/09F_FE_O.BMP,stimuli/07F_FE_O.BMP,stimuli/09F_FE_O.BMP,stimuli/EmptyFrame.bmp,stimuli/RedFrame.bmp,2,Fear,Female,3,1,0,107,107,107,,,,,2,1,444.74243690000003,447.74086470000475,448.72837789999903,1.6292331000004197,,,sub025,001,2025_Aug_05_0859,HaririTask_Ver1,3.0.1,None,
Fear,stimuli/11F_FE_O.BMP,stimuli/12F_FE_O.BMP,stimuli/11F_FE_O.BMP,stimuli/EmptyFrame.bmp,stimuli/RedFrame.bmp,2,Fear,Female,3,1,0,108,108,108,,,,,2,1,448.75820500000555,451.76133090000076,452.7416637999995,1.127234400002635,,,sub025,001,2025_Aug_05_0859,HaririTask_Ver1,3.0.1,None,
Fear,stimuli/34M_FE_O.BMP,stimuli/34M_FE_O.BMP,stimuli/33M_FE_O.BMP,stimuli/EmptyFrame.bmp,stimuli/RedFrame.bmp,1,Fear,Male,3,1,0,109,109,109,,,,,1,1,452.7721118000045,455.7760400000043,456.75857360000373,1.2986080000046059,,,sub025,001,2025_Aug_05_0859,HaririTask_Ver1,3.0.1,None,
,,,,,,,,,,,,,,,,,,,,,,,,,456.78541810000024,471.76778030000423,,,,,,,
