TrialType,Top,Left,Right,EmptyFrame,SelectedFrame,Correct,Emotion,Gender,TrialLength,FixationLength,n,GCFaceStartTime_mean,GCFaceStartTime_raw,GCFaceStartTime_std,GCPostFaceFixationEndTime_mean,GCPostFaceFixationEndTime_raw,GCPostFaceFixationEndTime_std,GCPostFaceFixationStartTime_mean,GCPostFaceFixationStartTime_raw,GCPostFaceFixationStartTime_std,key_resp_trial.corr_mean,key_resp_trial.corr_raw,key_resp_trial.corr_std,key_resp_trial.keys_raw,key_resp_trial.rt_mean,key_resp_trial.rt_raw,key_resp_trial.rt_std,order
MatchFaces,stimuli/MatchFaces.bmp,stimuli/EmptyFace.bmp,stimuli/EmptyFace.bmp,stimuli/EmptyFrame.bmp,stimuli/EmptyFrame.bmp,Null,None,None,3,1,1.0,15.224306106567383,15.224306106567383,0.0,19.04845428466797,19.04845428466797,0.0,18.05392837524414,18.05392837524414,0.0,0.0,0.0,0.0,,,,,0.0
Fear,stimuli/23M_FE_O.BMP,stimuli/23M_FE_O.BMP,stimuli/24M_FE_O.BMP,stimuli/EmptyFrame.bmp,stimuli/RedFrame.bmp,1,Fear,Male,3,1,1.0,19.19205093383789,19.19205093383789,0.0,23.068939208984375,23.068939208984375,0.0,22.07403564453125,22.07403564453125,0.0,1.0,1.0,0.0,'1',2.442645311355591,2.442645311355591,0.0,1.0
Fear,stimuli/19F_FE_O.BMP,stimuli/18F_FE_O.BMP,stimuli/19F_FE_O.BMP,stimuli/EmptyFrame.bmp,stimuli/RedFrame.bmp,2,Fear,Female,3,1,1.0,23.091014862060547,23.091014862060547,0.0,27.084728240966797,27.084728240966797,0.0,26.10413932800293,26.10413932800293,0.0,1.0,1.0,0.0,'2',1.7926021814346313,1.7926021814346313,0.0,2.0
Fear,stimuli/17F_FE_O.BMP,stimuli/17F_FE_O.BMP,stimuli/16F_FE_O.BMP,stimuli/EmptyFrame.bmp,stimuli/RedFrame.bmp,1,Fear,Female,3,1,1.0,27.107404708862305,27.107404708862305,0.0,31.104963302612305,31.104963302612305,0.0,30.110942840576172,30.110942840576172,0.0,1.0,1.0,0.0,'1',1.7216854095458984,1.7216854095458984,0.0,3.0
Fear,stimuli/21M_FE_O.BMP,stimuli/21M_FE_O.BMP,stimuli/22M_FE_O.BMP,stimuli/EmptyFrame.bmp,stimuli/RedFrame.bmp,1,Fear,Male,3,1,1.0,31.126853942871094,31.126853942871094,0.0,35.12529754638672,35.12529754638672,0.0,34.137603759765625,34.137603759765625,0.0,1.0,1.0,0.0,'1',1.900492787361145,1.900492787361145,0.0,4.0
Fear,stimuli/09F_FE_O.BMP,stimuli/07F_FE_O.BMP,stimuli/09F_FE_O.BMP,stimuli/EmptyFrame.bmp,stimuli/RedFrame.bmp,2,Fear,Female,3,1,1.0,35.151451110839844,35.151451110839844,0.0,39.14557647705078,39.14557647705078,0.0,38.15270233154297,38.15270233154297,0.0,1.0,1.0,0.0,'2',2.0510547161102295,2.0510547161102295,0.0,5.0
Fear,stimuli/08F_FE_O.BMP,stimuli/13F_FE_O.BMP,stimuli/08F_FE_O.BMP,stimuli/EmptyFrame.bmp,stimuli/RedFrame.bmp,2,Fear,Female,3,1,1.0,39.167972564697266,39.167972564697266,0.0,43.17206573486328,43.17206573486328,0.0,42.175567626953125,42.175567626953125,0.0,1.0,1.0,0.0,'2',1.8342795372009277,1.8342795372009277,0.0,6.0
Fear,stimuli/07F_FE_O.BMP,stimuli/07F_FE_O.BMP,stimuli/14F_FE_O.BMP,stimuli/EmptyFrame.bmp,stimuli/RedFrame.bmp,1,Fear,Female,3,1,1.0,43.19713592529297,43.19713592529297,0.0,47.19121170043945,47.19121170043945,0.0,46.19378662109375,46.19378662109375,0.0,1.0,1.0,0.0,'1',1.8226373195648193,1.8226373195648193,0.0,7.0
Fear,stimuli/26M_FE_O.BMP,stimuli/26M_FE_O.BMP,stimuli/28M_FE_O.BMP,stimuli/EmptyFrame.bmp,stimuli/RedFrame.bmp,1,Fear,Male,3,1,1.0,47.20981216430664,47.20981216430664,0.0,51.203731536865234,51.203731536865234,0.0,50.21723175048828,50.21723175048828,0.0,1.0,1.0,0.0,'1',2.207630157470703,2.207630157470703,0.0,8.0
Fear,stimuli/10F_FE_O.BMP,stimuli/11F_FE_O.BMP,stimuli/10F_FE_O.BMP,stimuli/EmptyFrame.bmp,stimuli/RedFrame.bmp,2,Fear,Female,3,1,1.0,51.22563171386719,51.22563171386719,0.0,55.22618865966797,55.22618865966797,0.0,54.236610412597656,54.236610412597656,0.0,1.0,1.0,0.0,'2',1.4378312826156616,1.4378312826156616,0.0,9.0
Fear,stimuli/29M_FE_O.BMP,stimuli/30M_FE_O.BMP,stimuli/29M_FE_O.BMP,stimuli/EmptyFrame.bmp,stimuli/RedFrame.bmp,2,Fear,Male,3,1,1.0,55.246883392333984,55.246883392333984,0.0,59.23595428466797,59.23595428466797,0.0,58.2593879699707,58.2593879699707,0.0,1.0,1.0,0.0,'2',1.4467209577560425,1.4467209577560425,0.0,10.0
MatchFaces,stimuli/MatchFaces.bmp,stimuli/EmptyFace.bmp,stimuli/EmptyFace.bmp,stimuli/EmptyFrame.bmp,stimuli/EmptyFrame.bmp,Null,None,None,3,1,1.0,59.414371490478516,59.414371490478516,0.0,63.249855041503906,63.249855041503906,0.0,62.25436782836914,62.25436782836914,0.0,0.0,0.0,0.0,,,,,11.0
Neutral,stimuli/07F_NE_C.BMP,stimuli/07F_NE_C.BMP,stimuli/14F_NE_C.BMP,stimuli/EmptyFrame.bmp,stimuli/RedFrame.bmp,1,Neutral,Female,3,1,1.0,63.315513610839844,63.315513610839844,0.0,67.2651138305664,67.2651138305664,0.0,66.27774810791016,66.27774810791016,0.0,1.0,1.0,0.0,'1',1.5482081174850464,1.5482081174850464,0.0,12.0
Neutral,stimuli/25M_NE_C.BMP,stimuli/29M_NE_C.BMP,stimuli/25M_NE_C.BMP,stimuli/EmptyFrame.bmp,stimuli/RedFrame.bmp,2,Neutral,Male,3,1,1.0,67.28811645507812,67.28811645507812,0.0,71.28328704833984,71.28328704833984,0.0,70.28899383544922,70.28899383544922,0.0,1.0,1.0,0.0,'2',1.6990759372711182,1.6990759372711182,0.0,13.0
Neutral,stimuli/26M_NE_C.BMP,stimuli/26M_NE_C.BMP,stimuli/28M_NE_C.BMP,stimuli/EmptyFrame.bmp,stimuli/RedFrame.bmp,1,Neutral,Male,3,1,1.0,71.30281829833984,71.30281829833984,0.0,75.29474639892578,75.29474639892578,0.0,74.31224822998047,74.31224822998047,0.0,1.0,1.0,0.0,'1',1.504906415939331,1.504906415939331,0.0,14.0
Neutral,stimuli/08F_NE_C.BMP,stimuli/13F_NE_C.BMP,stimuli/08F_NE_C.BMP,stimuli/EmptyFrame.bmp,stimuli/RedFrame.bmp,2,Neutral,Female,3,1,1.0,75.31559753417969,75.31559753417969,0.0,79.30431365966797,79.30431365966797,0.0,78.3237075805664,78.3237075805664,0.0,1.0,1.0,0.0,'2',1.3018203973770142,1.3018203973770142,0.0,15.0
Neutral,stimuli/09F_NE_C.BMP,stimuli/09F_NE_C.BMP,stimuli/12F_NE_C.BMP,stimuli/EmptyFrame.bmp,stimuli/RedFrame.bmp,1,Neutral,Female,3,1,1.0,79.32715606689453,79.32715606689453,0.0,83.31952667236328,83.31952667236328,0.0,82.33745574951172,82.33745574951172,0.0,1.0,1.0,0.0,'1',1.0966335535049438,1.0966335535049438,0.0,16.0
Neutral,stimuli/27M_NE_C.BMP,stimuli/26M_NE_C.BMP,stimuli/27M_NE_C.BMP,stimuli/EmptyFrame.bmp,stimuli/RedFrame.bmp,2,Neutral,Male,3,1,1.0,83.33944702148438,83.33944702148438,0.0,87.33749389648438,87.33749389648438,0.0,86.35396575927734,86.35396575927734,0.0,1.0,1.0,0.0,'2',1.593924880027771,1.593924880027771,0.0,17.0
Neutral,stimuli/28M_NE_C.BMP,stimuli/28M_NE_C.BMP,stimuli/25M_NE_C.BMP,stimuli/EmptyFrame.bmp,stimuli/RedFrame.bmp,1,Neutral,Male,3,1,1.0,87.3575439453125,87.3575439453125,0.0,91.35853576660156,91.35853576660156,0.0,90.36061096191406,90.36061096191406,0.0,1.0,1.0,0.0,'1',2.239952802658081,2.239952802658081,0.0,18.0
Neutral,stimuli/10F_NE_C.BMP,stimuli/11F_NE_C.BMP,stimuli/10F_NE_C.BMP,stimuli/EmptyFrame.bmp,stimuli/RedFrame.bmp,2,Neutral,Female,3,1,1.0,91.38471221923828,91.38471221923828,0.0,95.37943267822266,95.37943267822266,0.0,94.39031982421875,94.39031982421875,0.0,1.0,1.0,0.0,'2',1.2684998512268066,1.2684998512268066,0.0,19.0
Neutral,stimuli/29M_NE_C.BMP,stimuli/29M_NE_C.BMP,stimuli/24M_NE_C.BMP,stimuli/EmptyFrame.bmp,stimuli/RedFrame.bmp,1,Neutral,Male,3,1,1.0,95.4035415649414,95.4035415649414,0.0,99.39779663085938,99.39779663085938,0.0,98.42364501953125,98.42364501953125,0.0,1.0,1.0,0.0,'1',1.21221923828125,1.21221923828125,0.0,20.0
Neutral,stimuli/11F_NE_C.BMP,stimuli/10F_NE_C.BMP,stimuli/11F_NE_C.BMP,stimuli/EmptyFrame.bmp,stimuli/RedFrame.bmp,2,Neutral,Female,3,1,1.0,99.42031860351562,99.42031860351562,0.0,103.42191314697266,103.42191314697266,0.0,102.43843078613281,102.43843078613281,0.0,1.0,1.0,0.0,'2',1.0134426355361938,1.0134426355361938,0.0,21.0
MatchShape,stimuli/MatchShapes.bmp,stimuli/EmptyFace.bmp,stimuli/EmptyFace.bmp,stimuli/EmptyFrame.bmp,stimuli/EmptyFrame.bmp,Null,None,None,3,1,1.0,103.44998168945312,103.44998168945312,0.0,107.43321228027344,107.43321228027344,0.0,106.43253326416016,106.43253326416016,0.0,0.0,0.0,0.0,,,,,22.0
Shape,stimuli/circle.bmp,stimuli/vertical.bmp,stimuli/circle.bmp,stimuli/EmptyFrame.bmp,stimuli/RedFrame.bmp,2,Shape,None,3,1,1.0,107.4641342163086,107.4641342163086,0.0,111.4439468383789,111.4439468383789,0.0,110.47286987304688,110.47286987304688,0.0,1.0,1.0,0.0,'2',0.9753730893135071,0.9753730893135071,0.0,23.0
Shape,stimuli/horizontal.bmp,stimuli/circle.bmp,stimuli/horizontal.bmp,stimuli/EmptyFrame.bmp,stimuli/RedFrame.bmp,2,Shape,None,3,1,1.0,111.46784973144531,111.46784973144531,0.0,115.45459747314453,115.45459747314453,0.0,114.4671401977539,114.4671401977539,0.0,1.0,1.0,0.0,'2',0.9169303774833679,0.9169303774833679,0.0,24.0
Shape,stimuli/circle.bmp,stimuli/vertical.bmp,stimuli/circle.bmp,stimuli/EmptyFrame.bmp,stimuli/RedFrame.bmp,2,Shape,None,3,1,1.0,115.47677612304688,115.47677612304688,0.0,119.47157287597656,119.47157287597656,0.0,118.47549438476562,118.47549438476562,0.0,1.0,1.0,0.0,'2',1.1246318817138672,1.1246318817138672,0.0,25.0
Shape,stimuli/vertical.bmp,stimuli/circle.bmp,stimuli/vertical.bmp,stimuli/EmptyFrame.bmp,stimuli/RedFrame.bmp,2,Shape,None,3,1,1.0,119.49369812011719,119.49369812011719,0.0,123.48482513427734,123.48482513427734,0.0,122.4970474243164,122.4970474243164,0.0,1.0,1.0,0.0,'2',1.5011783838272095,1.5011783838272095,0.0,26.0
Shape,stimuli/vertical.bmp,stimuli/horizontal.bmp,stimuli/vertical.bmp,stimuli/EmptyFrame.bmp,stimuli/RedFrame.bmp,2,Shape,None,3,1,1.0,123.50347137451172,123.50347137451172,0.0,127.49668884277344,127.49668884277344,0.0,126.51383209228516,126.51383209228516,0.0,1.0,1.0,0.0,'2',1.451992392539978,1.451992392539978,0.0,27.0
Shape,stimuli/horizontal.bmp,stimuli/horizontal.bmp,stimuli/vertical.bmp,stimuli/EmptyFrame.bmp,stimuli/RedFrame.bmp,1,Shape,None,3,1,1.0,127.51487731933594,127.51487731933594,0.0,131.5098114013672,131.5098114013672,0.0,130.53021240234375,130.53021240234375,0.0,1.0,1.0,0.0,'1',1.613675832748413,1.613675832748413,0.0,28.0
Shape,stimuli/horizontal.bmp,stimuli/circle.bmp,stimuli/horizontal.bmp,stimuli/EmptyFrame.bmp,stimuli/RedFrame.bmp,2,Shape,None,3,1,1.0,131.53189086914062,131.53189086914062,0.0,135.5259552001953,135.5259552001953,0.0,134.5318145751953,134.5318145751953,0.0,1.0,1.0,0.0,'2',0.9711601138114929,0.9711601138114929,0.0,29.0
Shape,stimuli/circle.bmp,stimuli/circle.bmp,stimuli/vertical.bmp,stimuli/EmptyFrame.bmp,stimuli/RedFrame.bmp,1,Shape,None,3,1,1.0,135.54779052734375,135.54779052734375,0.0,139.54183959960938,139.54183959960938,0.0,138.54827880859375,138.54827880859375,0.0,1.0,1.0,0.0,'1',0.9517796039581299,0.9517796039581299,0.0,30.0
Shape,stimuli/vertical.bmp,stimuli/horizontal.bmp,stimuli/vertical.bmp,stimuli/EmptyFrame.bmp,stimuli/RedFrame.bmp,2,Shape,None,3,1,1.0,139.5652618408203,139.5652618408203,0.0,143.5575408935547,143.5575408935547,0.0,142.57464599609375,142.57464599609375,0.0,1.0,1.0,0.0,'2',1.1127841472625732,1.1127841472625732,0.0,31.0
Shape,stimuli/vertical.bmp,stimuli/vertical.bmp,stimuli/horizontal.bmp,stimuli/EmptyFrame.bmp,stimuli/RedFrame.bmp,1,Shape,None,3,1,1.0,143.57708740234375,143.57708740234375,0.0,147.57376098632812,147.57376098632812,0.0,146.58087158203125,146.58087158203125,0.0,1.0,1.0,0.0,'1',1.0034736394882202,1.0034736394882202,0.0,32.0
MatchFaces,stimuli/MatchFaces.bmp,stimuli/EmptyFace.bmp,stimuli/EmptyFace.bmp,stimuli/EmptyFrame.bmp,stimuli/EmptyFrame.bmp,Null,None,None,3,1,1.0,147.7913360595703,147.7913360595703,0.0,151.5827178955078,151.5827178955078,0.0,150.59356689453125,150.59356689453125,0.0,0.0,0.0,0.0,,,,,33.0
Anger,stimuli/20M_AN_O.BMP,stimuli/34M_AN_O.BMP,stimuli/20M_AN_O.BMP,stimuli/EmptyFrame.bmp,stimuli/RedFrame.bmp,2,Anger,Male,3,1,1.0,151.66505432128906,151.66505432128906,0.0,155.6063232421875,155.6063232421875,0.0,154.61241149902344,154.61241149902344,0.0,1.0,1.0,0.0,'2',1.0687962770462036,1.0687962770462036,0.0,34.0
Anger,stimuli/01F_AN_O.bmp,stimuli/19F_AN_O.BMP,stimuli/01F_AN_O.bmp,stimuli/EmptyFrame.bmp,stimuli/RedFrame.bmp,2,Anger,Female,3,1,1.0,155.63307189941406,155.63307189941406,0.0,159.62339782714844,159.62339782714844,0.0,158.63882446289062,158.63882446289062,0.0,1.0,1.0,0.0,'2',1.0205098390579224,1.0205098390579224,0.0,35.0
Anger,stimuli/06F_AN_O.bmp,stimuli/15F_AN_O.BMP,stimuli/06F_AN_O.bmp,stimuli/EmptyFrame.bmp,stimuli/RedFrame.bmp,2,Anger,Female,3,1,1.0,159.64862060546875,159.64862060546875,0.0,163.6449737548828,163.6449737548828,0.0,162.65170288085938,162.65170288085938,0.0,1.0,1.0,0.0,'2',1.3079289197921753,1.3079289197921753,0.0,36.0
Anger,stimuli/42M_AN_O.BMP,stimuli/42M_AN_O.BMP,stimuli/43M_AN_O.BMP,stimuli/EmptyFrame.bmp,stimuli/RedFrame.bmp,1,Anger,Male,3,1,1.0,163.6685028076172,163.6685028076172,0.0,167.66067504882812,167.66067504882812,0.0,166.68133544921875,166.68133544921875,0.0,1.0,1.0,0.0,'1',1.2128125429153442,1.2128125429153442,0.0,37.0
Anger,stimuli/40M_AN_O.BMP,stimuli/41M_AN_O.BMP,stimuli/40M_AN_O.BMP,stimuli/EmptyFrame.bmp,stimuli/RedFrame.bmp,2,Anger,Male,3,1,1.0,167.67979431152344,167.67979431152344,0.0,171.6802520751953,171.6802520751953,0.0,170.6868438720703,170.6868438720703,0.0,1.0,1.0,0.0,'2',0.9718577265739441,0.9718577265739441,0.0,38.0
Anger,stimuli/08F_AN_O.BMP,stimuli/08F_AN_O.BMP,stimuli/13F_AN_O.BMP,stimuli/EmptyFrame.bmp,stimuli/RedFrame.bmp,1,Anger,Female,3,1,1.0,171.70249938964844,171.70249938964844,0.0,175.6993865966797,175.6993865966797,0.0,174.7106170654297,174.7106170654297,0.0,1.0,1.0,0.0,'1',1.6454691886901855,1.6454691886901855,0.0,39.0
Anger,stimuli/09F_AN_O.BMP,stimuli/12F_AN_O.BMP,stimuli/09F_AN_O.BMP,stimuli/EmptyFrame.bmp,stimuli/RedFrame.bmp,2,Anger,Female,3,1,1.0,175.72293090820312,175.72293090820312,0.0,179.71722412109375,179.71722412109375,0.0,178.72174072265625,178.72174072265625,0.0,1.0,1.0,0.0,'2',1.4271047115325928,1.4271047115325928,0.0,40.0
Anger,stimuli/34M_AN_O.BMP,stimuli/35M_AN_O.BMP,stimuli/34M_AN_O.BMP,stimuli/EmptyFrame.bmp,stimuli/RedFrame.bmp,2,Anger,Male,3,1,1.0,179.7405548095703,179.7405548095703,0.0,183.7379913330078,183.7379913330078,0.0,182.75192260742188,182.75192260742188,0.0,1.0,1.0,0.0,'2',1.3710036277770996,1.3710036277770996,0.0,41.0
Anger,stimuli/24M_AN_O.BMP,stimuli/24M_AN_O.BMP,stimuli/30M_AN_O.BMP,stimuli/EmptyFrame.bmp,stimuli/RedFrame.bmp,1,Anger,Male,3,1,1.0,183.7618408203125,183.7618408203125,0.0,187.75830078125,187.75830078125,0.0,186.75924682617188,186.75924682617188,0.0,1.0,1.0,0.0,'1',1.3656835556030273,1.3656835556030273,0.0,42.0
Anger,stimuli/03F_AN_O.bmp,stimuli/03F_AN_O.bmp,stimuli/17F_AN_O.BMP,stimuli/EmptyFrame.bmp,stimuli/RedFrame.bmp,1,Anger,Female,3,1,1.0,187.7860107421875,187.7860107421875,0.0,191.77403259277344,191.77403259277344,0.0,190.78610229492188,190.78610229492188,0.0,1.0,1.0,0.0,'1',1.1288403272628784,1.1288403272628784,0.0,43.0
MatchFaces,stimuli/MatchFaces.bmp,stimuli/EmptyFace.bmp,stimuli/EmptyFace.bmp,stimuli/EmptyFrame.bmp,stimuli/EmptyFrame.bmp,Null,None,None,3,1,1.0,191.9593963623047,191.9593963623047,0.0,195.77578735351562,195.77578735351562,0.0,194.78733825683594,194.78733825683594,0.0,0.0,0.0,0.0,,,,,44.0
Happy,stimuli/06F_HA_O.bmp,stimuli/07F_HA_O.BMP,stimuli/06F_HA_O.bmp,stimuli/EmptyFrame.bmp,stimuli/RedFrame.bmp,2,Happy,Female,3,1,1.0,195.8484344482422,195.8484344482422,0.0,199.7887420654297,199.7887420654297,0.0,198.81494140625,198.81494140625,0.0,1.0,1.0,0.0,'2',1.2464834451675415,1.2464834451675415,0.0,45.0
Happy,stimuli/13F_HA_O.BMP,stimuli/13F_HA_O.BMP,stimuli/12F_HA_O.BMP,stimuli/EmptyFrame.bmp,stimuli/RedFrame.bmp,1,Happy,Female,3,1,1.0,199.81365966796875,199.81365966796875,0.0,203.8020477294922,203.8020477294922,0.0,202.81700134277344,202.81700134277344,0.0,1.0,1.0,0.0,'1',1.304029941558838,1.304029941558838,0.0,46.0
Happy,stimuli/41M_HA_O.BMP,stimuli/41M_HA_O.BMP,stimuli/40M_HA_O.BMP,stimuli/EmptyFrame.bmp,stimuli/RedFrame.bmp,1,Happy,Male,3,1,1.0,203.8235321044922,203.8235321044922,0.0,207.8214874267578,207.8214874267578,0.0,206.83189392089844,206.83189392089844,0.0,1.0,1.0,0.0,'1',1.0875499248504639,1.0875499248504639,0.0,47.0
Happy,stimuli/03F_HA_O.bmp,stimuli/05F_HA_O.bmp,stimuli/03F_HA_O.bmp,stimuli/EmptyFrame.bmp,stimuli/RedFrame.bmp,2,Happy,Female,3,1,1.0,207.84629821777344,207.84629821777344,0.0,211.8302764892578,211.8302764892578,0.0,210.84323120117188,210.84323120117188,0.0,1.0,1.0,0.0,'2',1.2833528518676758,1.2833528518676758,0.0,48.0
Happy,stimuli/24M_HA_O.BMP,stimuli/24M_HA_O.BMP,stimuli/25M_HA_O.BMP,stimuli/EmptyFrame.bmp,stimuli/RedFrame.bmp,1,Happy,Male,3,1,1.0,211.85321044921875,211.85321044921875,0.0,215.84498596191406,215.84498596191406,0.0,214.8627471923828,214.8627471923828,0.0,1.0,1.0,0.0,'1',1.4285916090011597,1.4285916090011597,0.0,49.0
Happy,stimuli/19F_HA_O.BMP,stimuli/19F_HA_O.BMP,stimuli/18F_HA_O.BMP,stimuli/EmptyFrame.bmp,stimuli/RedFrame.bmp,1,Happy,Female,3,1,1.0,215.86647033691406,215.86647033691406,0.0,219.866943359375,219.866943359375,0.0,218.87103271484375,218.87103271484375,0.0,1.0,1.0,0.0,'1',1.6082886457443237,1.6082886457443237,0.0,50.0
Happy,stimuli/01F_HA_O.bmp,stimuli/01F_HA_O.bmp,stimuli/02F_HA_O.bmp,stimuli/EmptyFrame.bmp,stimuli/RedFrame.bmp,1,Happy,Female,3,1,1.0,219.89825439453125,219.89825439453125,0.0,223.8833465576172,223.8833465576172,0.0,222.89193725585938,222.89193725585938,0.0,1.0,1.0,0.0,'1',1.2664107084274292,1.2664107084274292,0.0,51.0
Happy,stimuli/22M_HA_O.BMP,stimuli/23M_HA_O.BMP,stimuli/22M_HA_O.BMP,stimuli/EmptyFrame.bmp,stimuli/RedFrame.bmp,2,Happy,Male,3,1,1.0,223.907958984375,223.907958984375,0.0,227.8971405029297,227.8971405029297,0.0,226.9079132080078,226.9079132080078,0.0,1.0,1.0,0.0,'2',1.7772159576416016,1.7772159576416016,0.0,52.0
Happy,stimuli/35M_HA_O.BMP,stimuli/34M_HA_O.BMP,stimuli/35M_HA_O.BMP,stimuli/EmptyFrame.bmp,stimuli/RedFrame.bmp,2,Happy,Male,3,1,1.0,227.91928100585938,227.91928100585938,0.0,231.92404174804688,231.92404174804688,0.0,230.9276580810547,230.9276580810547,0.0,1.0,1.0,0.0,'2',1.5105000734329224,1.5105000734329224,0.0,53.0
Happy,stimuli/39M_HA_O.BMP,stimuli/38M_HA_O.BMP,stimuli/39M_HA_O.BMP,stimuli/EmptyFrame.bmp,stimuli/RedFrame.bmp,2,Happy,Male,3,1,1.0,231.94879150390625,231.94879150390625,0.0,235.93536376953125,235.93536376953125,0.0,234.9545440673828,234.9545440673828,0.0,1.0,1.0,0.0,'2',1.2505334615707397,1.2505334615707397,0.0,54.0
Match Shape,stimuli/MatchShapes.bmp,stimuli/EmptyFace.bmp,stimuli/EmptyFace.bmp,stimuli/EmptyFrame.bmp,stimuli/EmptyFrame.bmp,Null,None,None,3,1,1.0,235.9590606689453,235.9590606689453,0.0,239.94393920898438,239.94393920898438,0.0,238.95016479492188,238.95016479492188,0.0,0.0,0.0,0.0,,,,,55.0
Shape,stimuli/horizontal.bmp,stimuli/horizontal.bmp,stimuli/vertical.bmp,stimuli/EmptyFrame.bmp,stimuli/RedFrame.bmp,1,Shape,None,3,1,1.0,239.9728546142578,239.9728546142578,0.0,243.95486450195312,243.95486450195312,0.0,242.97222900390625,242.97222900390625,0.0,1.0,1.0,0.0,'1',1.1709321737289429,1.1709321737289429,0.0,56.0
Shape,stimuli/horizontal.bmp,stimuli/horizontal.bmp,stimuli/circle.bmp,stimuli/EmptyFrame.bmp,stimuli/RedFrame.bmp,1,Shape,None,3,1,1.0,243.9760284423828,243.9760284423828,0.0,247.9728240966797,247.9728240966797,0.0,246.9779052734375,246.9779052734375,0.0,1.0,1.0,0.0,'1',1.1264175176620483,1.1264175176620483,0.0,57.0
Shape,stimuli/circle.bmp,stimuli/vertical.bmp,stimuli/circle.bmp,stimuli/EmptyFrame.bmp,stimuli/RedFrame.bmp,2,Shape,None,3,1,1.0,247.99354553222656,247.99354553222656,0.0,251.9846649169922,251.9846649169922,0.0,250.996337890625,250.996337890625,0.0,1.0,1.0,0.0,'2',1.2028186321258545,1.2028186321258545,0.0,58.0
Shape,stimuli/vertical.bmp,stimuli/vertical.bmp,stimuli/circle.bmp,stimuli/EmptyFrame.bmp,stimuli/RedFrame.bmp,1,Shape,None,3,1,1.0,252.00831604003906,252.00831604003906,0.0,255.995361328125,255.995361328125,0.0,255.01405334472656,255.01405334472656,0.0,1.0,1.0,0.0,'1',1.0067683458328247,1.0067683458328247,0.0,59.0
Shape,stimuli/horizontal.bmp,stimuli/horizontal.bmp,stimuli/circle.bmp,stimuli/EmptyFrame.bmp,stimuli/RedFrame.bmp,1,Shape,None,3,1,1.0,256.0139465332031,256.0139465332031,0.0,260.0116271972656,260.0116271972656,0.0,259.03192138671875,259.03192138671875,0.0,1.0,1.0,0.0,'1',0.9834759831428528,0.9834759831428528,0.0,60.0
Shape,stimuli/vertical.bmp,stimuli/vertical.bmp,stimuli/circle.bmp,stimuli/EmptyFrame.bmp,stimuli/RedFrame.bmp,1,Shape,None,3,1,1.0,260.03216552734375,260.03216552734375,0.0,264.0294189453125,264.0294189453125,0.0,263.04296875,263.04296875,0.0,1.0,1.0,0.0,'1',0.8016269207000732,0.8016269207000732,0.0,61.0
Shape,stimuli/horizontal.bmp,stimuli/circle.bmp,stimuli/horizontal.bmp,stimuli/EmptyFrame.bmp,stimuli/RedFrame.bmp,2,Shape,None,3,1,1.0,264.0509338378906,264.0509338378906,0.0,268.0509338378906,268.0509338378906,0.0,267.05389404296875,267.05389404296875,0.0,1.0,1.0,0.0,'2',0.9774430990219116,0.9774430990219116,0.0,62.0
Shape,stimuli/circle.bmp,stimuli/circle.bmp,stimuli/horizontal.bmp,stimuli/EmptyFrame.bmp,stimuli/RedFrame.bmp,1,Shape,None,3,1,1.0,268.068359375,268.068359375,0.0,272.0624084472656,272.0624084472656,0.0,271.0788269042969,271.0788269042969,0.0,1.0,1.0,0.0,'1',1.4136823415756226,1.4136823415756226,0.0,63.0
Shape,stimuli/circle.bmp,stimuli/horizontal.bmp,stimuli/circle.bmp,stimuli/EmptyFrame.bmp,stimuli/RedFrame.bmp,2,Shape,None,3,1,1.0,272.0815124511719,272.0815124511719,0.0,276.0815124511719,276.0815124511719,0.0,275.0847473144531,275.0847473144531,0.0,1.0,1.0,0.0,'2',1.0063761472702026,1.0063761472702026,0.0,64.0
Shape,stimuli/vertical.bmp,stimuli/vertical.bmp,stimuli/horizontal.bmp,stimuli/EmptyFrame.bmp,stimuli/RedFrame.bmp,1,Shape,None,3,1,1.0,276.1029357910156,276.1029357910156,0.0,280.0977783203125,280.0977783203125,0.0,279.10595703125,279.10595703125,0.0,1.0,1.0,0.0,'1',1.178032398223877,1.178032398223877,0.0,65.0
MatchFaces,stimuli/MatchFaces.bmp,stimuli/EmptyFace.bmp,stimuli/EmptyFace.bmp,stimuli/EmptyFrame.bmp,stimuli/EmptyFrame.bmp,Null,None,None,3,1,1.0,280.255126953125,280.255126953125,0.0,284.09918212890625,284.09918212890625,0.0,283.1156311035156,283.1156311035156,0.0,0.0,0.0,0.0,,,,,66.0
Neutral,stimuli/20M_NE_C.BMP,stimuli/21M_NE_C.BMP,stimuli/20M_NE_C.BMP,stimuli/EmptyFrame.bmp,stimuli/RedFrame.bmp,2,Neutral,Male,3,1,1.0,284.1675109863281,284.1675109863281,0.0,288.1181945800781,288.1181945800781,0.0,287.12420654296875,287.12420654296875,0.0,1.0,1.0,0.0,'2',2.7553343772888184,2.7553343772888184,0.0,67.0
Neutral,stimuli/01F_NE_C.bmp,stimuli/01F_NE_C.bmp,stimuli/02F_NE_C.bmp,stimuli/EmptyFrame.bmp,stimuli/RedFrame.bmp,1,Neutral,Female,3,1,1.0,288.1421203613281,288.1421203613281,0.0,292.1336669921875,292.1336669921875,0.0,291.147705078125,291.147705078125,0.0,1.0,1.0,0.0,'1',1.0598030090332031,1.0598030090332031,0.0,68.0
Neutral,stimuli/22M_NE_C.BMP,stimuli/23M_NE_C.BMP,stimuli/22M_NE_C.BMP,stimuli/EmptyFrame.bmp,stimuli/RedFrame.bmp,2,Neutral,Male,3,1,1.0,292.1585388183594,292.1585388183594,0.0,296.14422607421875,296.14422607421875,0.0,295.157958984375,295.157958984375,0.0,1.0,1.0,0.0,'2',1.7701555490493774,1.7701555490493774,0.0,69.0
Neutral,stimuli/24M_NE_C.BMP,stimuli/24M_NE_C.BMP,stimuli/25M_NE_C.BMP,stimuli/EmptyFrame.bmp,stimuli/RedFrame.bmp,1,Neutral,Male,3,1,1.0,296.1655578613281,296.1655578613281,0.0,300.1568298339844,300.1568298339844,0.0,299.1720275878906,299.1720275878906,0.0,1.0,1.0,0.0,'1',1.664588451385498,1.664588451385498,0.0,70.0
Neutral,stimuli/03F_NE_C.bmp,stimuli/05F_NE_C.bmp,stimuli/03F_NE_C.bmp,stimuli/EmptyFrame.bmp,stimuli/RedFrame.bmp,2,Neutral,Female,3,1,1.0,300.1805114746094,300.1805114746094,0.0,304.16937255859375,304.16937255859375,0.0,303.18304443359375,303.18304443359375,0.0,1.0,1.0,0.0,'2',1.7171523571014404,1.7171523571014404,0.0,71.0
Neutral,stimuli/26M_NE_C.BMP,stimuli/26M_NE_C.BMP,stimuli/27M_NE_C.BMP,stimuli/EmptyFrame.bmp,stimuli/RedFrame.bmp,1,Neutral,Male,3,1,1.0,304.1963195800781,304.1963195800781,0.0,308.1890563964844,308.1890563964844,0.0,307.1969909667969,307.1969909667969,0.0,1.0,1.0,0.0,'1',1.2356544733047485,1.2356544733047485,0.0,72.0
Neutral,stimuli/06F_NE_C.bmp,stimuli/07F_NE_C.BMP,stimuli/06F_NE_C.bmp,stimuli/EmptyFrame.bmp,stimuli/RedFrame.bmp,2,Neutral,Female,3,1,1.0,308.212890625,308.212890625,0.0,312.2088623046875,312.2088623046875,0.0,311.22259521484375,311.22259521484375,0.0,1.0,1.0,0.0,'2',1.4772526025772095,1.4772526025772095,0.0,73.0
Neutral,stimuli/08F_NE_C.BMP,stimuli/08F_NE_C.BMP,stimuli/09F_NE_C.BMP,stimuli/EmptyFrame.bmp,stimuli/RedFrame.bmp,1,Neutral,Female,3,1,1.0,312.23431396484375,312.23431396484375,0.0,316.2229919433594,316.2229919433594,0.0,315.2328186035156,315.2328186035156,0.0,1.0,1.0,0.0,'1',1.0201563835144043,1.0201563835144043,0.0,74.0
Neutral,stimuli/28M_NE_C.BMP,stimuli/29M_NE_C.BMP,stimuli/28M_NE_C.BMP,stimuli/EmptyFrame.bmp,stimuli/RedFrame.bmp,2,Neutral,Male,3,1,1.0,316.24847412109375,316.24847412109375,0.0,320.24029541015625,320.24029541015625,0.0,319.255615234375,319.255615234375,0.0,1.0,1.0,0.0,'2',1.2051289081573486,1.2051289081573486,0.0,75.0
Neutral,stimuli/10F_NE_C.BMP,stimuli/10F_NE_C.BMP,stimuli/06F_NE_C.bmp,stimuli/EmptyFrame.bmp,stimuli/RedFrame.bmp,1,Neutral,Female,3,1,1.0,320.265625,320.265625,0.0,324.2577819824219,324.2577819824219,0.0,323.2651062011719,323.2651062011719,0.0,1.0,1.0,0.0,'1',0.9285051822662354,0.9285051822662354,0.0,76.0
MatchFaces,stimuli/MatchFaces.bmp,stimuli/EmptyFace.bmp,stimuli/EmptyFace.bmp,stimuli/EmptyFrame.bmp,stimuli/EmptyFrame.bmp,Null,None,None,3,1,1.0,324.4276428222656,324.4276428222656,0.0,328.26348876953125,328.26348876953125,0.0,327.2807922363281,327.2807922363281,0.0,0.0,0.0,0.0,,,,,77.0
Happy,stimuli/28M_HA_O.BMP,stimuli/29M_HA_O.BMP,stimuli/28M_HA_O.BMP,stimuli/EmptyFrame.bmp,stimuli/RedFrame.bmp,2,Happy,Male,3,1,1.0,328.3218688964844,328.3218688964844,0.0,332.2838134765625,332.2838134765625,0.0,331.2876281738281,331.2876281738281,0.0,1.0,1.0,0.0,'2',1.462056040763855,1.462056040763855,0.0,78.0
Happy,stimuli/10F_HA_O.BMP,stimuli/10F_HA_O.BMP,stimuli/06F_HA_O.bmp,stimuli/EmptyFrame.bmp,stimuli/RedFrame.bmp,1,Happy,Female,3,1,1.0,332.31182861328125,332.31182861328125,0.0,336.29681396484375,336.29681396484375,0.0,335.31719970703125,335.31719970703125,0.0,1.0,1.0,0.0,'1',1.431788682937622,1.431788682937622,0.0,79.0
Happy,stimuli/26M_HA_O.BMP,stimuli/26M_HA_O.BMP,stimuli/27M_HA_O.BMP,stimuli/EmptyFrame.bmp,stimuli/RedFrame.bmp,1,Happy,Male,3,1,1.0,336.3165588378906,336.3165588378906,0.0,340.3213806152344,340.3213806152344,0.0,339.32171630859375,339.32171630859375,0.0,1.0,1.0,0.0,'1',1.4627270698547363,1.4627270698547363,0.0,80.0
Happy,stimuli/20M_HA_O.BMP,stimuli/21M_HA_O.BMP,stimuli/20M_HA_O.BMP,stimuli/EmptyFrame.bmp,stimuli/RedFrame.bmp,2,Happy,Male,3,1,1.0,340.348876953125,340.348876953125,0.0,344.33544921875,344.33544921875,0.0,343.34716796875,343.34716796875,0.0,1.0,1.0,0.0,'2',1.7755249738693237,1.7755249738693237,0.0,81.0
Happy,stimuli/37M_HA_O.BMP,stimuli/37M_HA_O.BMP,stimuli/36M_HA_O.BMP,stimuli/EmptyFrame.bmp,stimuli/RedFrame.bmp,1,Happy,Male,3,1,1.0,344.3583984375,344.3583984375,0.0,348.3519287109375,348.3519287109375,0.0,347.36346435546875,347.36346435546875,0.0,1.0,1.0,0.0,'1',1.4989641904830933,1.4989641904830933,0.0,82.0
Happy,stimuli/43M_HA_O.BMP,stimuli/42M_HA_O.BMP,stimuli/43M_HA_O.BMP,stimuli/EmptyFrame.bmp,stimuli/RedFrame.bmp,2,Happy,Male,3,1,1.0,348.37457275390625,348.37457275390625,0.0,352.36737060546875,352.36737060546875,0.0,351.3741455078125,351.3741455078125,0.0,1.0,1.0,0.0,'2',0.9210839867591858,0.9210839867591858,0.0,83.0
Happy,stimuli/11F_HA_O.BMP,stimuli/10F_HA_O.BMP,stimuli/11F_HA_O.BMP,stimuli/EmptyFrame.bmp,stimuli/RedFrame.bmp,2,Happy,Female,3,1,1.0,352.39166259765625,352.39166259765625,0.0,356.3823547363281,356.3823547363281,0.0,355.4058837890625,355.4058837890625,0.0,1.0,1.0,0.0,'2',0.8043639063835144,0.8043639063835144,0.0,84.0
Happy,stimuli/17F_HA_O.BMP,stimuli/16F_HA_O.BMP,stimuli/17F_HA_O.BMP,stimuli/EmptyFrame.bmp,stimuli/RedFrame.bmp,2,Happy,Female,3,1,1.0,356.41436767578125,356.41436767578125,0.0,360.4070739746094,360.4070739746094,0.0,359.4205322265625,359.4205322265625,0.0,1.0,1.0,0.0,'2',1.8958163261413574,1.8958163261413574,0.0,85.0
Happy,stimuli/15F_HA_O.BMP,stimuli/15F_HA_O.BMP,stimuli/14F_HA_O.BMP,stimuli/EmptyFrame.bmp,stimuli/RedFrame.bmp,1,Happy,Female,3,1,1.0,360.4364318847656,360.4364318847656,0.0,364.42681884765625,364.42681884765625,0.0,363.4300842285156,363.4300842285156,0.0,1.0,1.0,0.0,'1',1.625466227531433,1.625466227531433,0.0,86.0
Happy,stimuli/08F_HA_O.BMP,stimuli/08F_HA_O.BMP,stimuli/09F_HA_O.BMP,stimuli/EmptyFrame.bmp,stimuli/RedFrame.bmp,1,Happy,Female,3,1,1.0,364.44781494140625,364.44781494140625,0.0,368.44915771484375,368.44915771484375,0.0,367.4575500488281,367.4575500488281,0.0,1.0,1.0,0.0,'1',2.0372209548950195,2.0372209548950195,0.0,87.0
MatchFaces,stimuli/MatchFaces.bmp,stimuli/EmptyFace.bmp,stimuli/EmptyFace.bmp,stimuli/EmptyFrame.bmp,stimuli/EmptyFrame.bmp,Null,None,None,3,1,1.0,368.60760498046875,368.60760498046875,0.0,372.4512634277344,372.4512634277344,0.0,371.47027587890625,371.47027587890625,0.0,0.0,0.0,0.0,,,,,88.0
Fear,stimuli/34M_FE_O.BMP,stimuli/34M_FE_O.BMP,stimuli/33M_FE_O.BMP,stimuli/EmptyFrame.bmp,stimuli/RedFrame.bmp,1,Fear,Male,3,1,1.0,372.5199279785156,372.5199279785156,0.0,376.4700622558594,376.4700622558594,0.0,375.48272705078125,375.48272705078125,0.0,1.0,1.0,0.0,'1',1.2283005714416504,1.2283005714416504,0.0,89.0
Fear,stimuli/28M_FE_O.BMP,stimuli/28M_FE_O.BMP,stimuli/25M_FE_O.BMP,stimuli/EmptyFrame.bmp,stimuli/RedFrame.bmp,1,Fear,Male,3,1,1.0,376.4915771484375,376.4915771484375,0.0,380.48333740234375,380.48333740234375,0.0,379.498779296875,379.498779296875,0.0,1.0,1.0,0.0,'1',1.4902942180633545,1.4902942180633545,0.0,90.0
Fear,stimuli/11F_FE_O.BMP,stimuli/10F_FE_O.BMP,stimuli/11F_FE_O.BMP,stimuli/EmptyFrame.bmp,stimuli/RedFrame.bmp,2,Fear,Female,3,1,1.0,380.5052490234375,380.5052490234375,0.0,384.4915771484375,384.4915771484375,0.0,383.5083923339844,383.5083923339844,0.0,1.0,1.0,0.0,'2',1.4632264375686646,1.4632264375686646,0.0,91.0
Fear,stimuli/27M_FE_O.BMP,stimuli/26M_FE_O.BMP,stimuli/27M_FE_O.BMP,stimuli/EmptyFrame.bmp,stimuli/RedFrame.bmp,2,Fear,Male,3,1,1.0,384.5142822265625,384.5142822265625,0.0,388.5118103027344,388.5118103027344,0.0,387.52294921875,387.52294921875,0.0,1.0,1.0,0.0,'2',1.6235215663909912,1.6235215663909912,0.0,92.0
Fear,stimuli/11F_FE_O.BMP,stimuli/12F_FE_O.BMP,stimuli/11F_FE_O.BMP,stimuli/EmptyFrame.bmp,stimuli/RedFrame.bmp,2,Fear,Female,3,1,1.0,388.5352783203125,388.5352783203125,0.0,392.5357971191406,392.5357971191406,0.0,391.53704833984375,391.53704833984375,0.0,1.0,1.0,0.0,'2',1.1439567804336548,1.1439567804336548,0.0,93.0
Fear,stimuli/31M_FE_O.BMP,stimuli/31M_FE_O.BMP,stimuli/38M_FE_O.BMP,stimuli/EmptyFrame.bmp,stimuli/RedFrame.bmp,1,Fear,Male,3,1,1.0,392.56048583984375,392.56048583984375,0.0,396.5572509765625,396.5572509765625,0.0,395.5566711425781,395.5566711425781,0.0,1.0,1.0,0.0,'1',1.121500849723816,1.121500849723816,0.0,94.0
Fear,stimuli/29M_FE_O.BMP,stimuli/29M_FE_O.BMP,stimuli/24M_FE_O.BMP,stimuli/EmptyFrame.bmp,stimuli/RedFrame.bmp,1,Fear,Male,3,1,1.0,396.5817565917969,396.5817565917969,0.0,400.5733947753906,400.5733947753906,0.0,399.585205078125,399.585205078125,0.0,1.0,1.0,0.0,'1',1.3174949884414673,1.3174949884414673,0.0,95.0
Fear,stimuli/25M_FE_O.BMP,stimuli/29M_FE_O.BMP,stimuli/25M_FE_O.BMP,stimuli/EmptyFrame.bmp,stimuli/RedFrame.bmp,2,Fear,Male,3,1,1.0,400.59637451171875,400.59637451171875,0.0,404.5893859863281,404.5893859863281,0.0,403.6007995605469,403.6007995605469,0.0,1.0,1.0,0.0,'2',1.5150706768035889,1.5150706768035889,0.0,96.0
Fear,stimuli/15F_FE_O.BMP,stimuli/18F_FE_O.BMP,stimuli/15F_FE_O.BMP,stimuli/EmptyFrame.bmp,stimuli/RedFrame.bmp,2,Fear,Female,3,1,1.0,404.61181640625,404.61181640625,0.0,408.6023254394531,408.6023254394531,0.0,407.61944580078125,407.61944580078125,0.0,1.0,1.0,0.0,'2',1.699331283569336,1.699331283569336,0.0,97.0
Fear,stimuli/09F_FE_O.BMP,stimuli/09F_FE_O.BMP,stimuli/12F_FE_O.BMP,stimuli/EmptyFrame.bmp,stimuli/RedFrame.bmp,1,Fear,Female,3,1,1.0,408.625244140625,408.625244140625,0.0,412.6146240234375,412.6146240234375,0.0,411.6370544433594,411.6370544433594,0.0,1.0,1.0,0.0,'1',1.1291030645370483,1.1291030645370483,0.0,98.0
MatchFaces,stimuli/MatchFaces.bmp,stimuli/EmptyFace.bmp,stimuli/EmptyFace.bmp,stimuli/EmptyFrame.bmp,stimuli/EmptyFrame.bmp,Null,None,None,3,1,1.0,412.8301086425781,412.8301086425781,0.0,416.62432861328125,416.62432861328125,0.0,415.63494873046875,415.63494873046875,0.0,0.0,0.0,0.0,,,,,99.0
Anger,stimuli/23M_AN_O.BMP,stimuli/23M_AN_O.BMP,stimuli/31M_AN_O.BMP,stimuli/EmptyFrame.bmp,stimuli/RedFrame.bmp,1,Anger,Male,3,1,1.0,416.6851806640625,416.6851806640625,0.0,420.6482238769531,420.6482238769531,0.0,419.65533447265625,419.65533447265625,0.0,1.0,1.0,0.0,'1',1.6945925951004028,1.6945925951004028,0.0,100.0
Anger,stimuli/36M_AN_O.BMP,stimuli/37M_AN_O.BMP,stimuli/36M_AN_O.BMP,stimuli/EmptyFrame.bmp,stimuli/RedFrame.bmp,2,Anger,Male,3,1,1.0,420.6691589355469,420.6691589355469,0.0,424.65966796875,424.65966796875,0.0,423.67230224609375,423.67230224609375,0.0,1.0,1.0,0.0,'2',1.9332892894744873,1.9332892894744873,0.0,101.0
Anger,stimuli/38M_AN_O.BMP,stimuli/39M_AN_O.BMP,stimuli/38M_AN_O.BMP,stimuli/EmptyFrame.bmp,stimuli/RedFrame.bmp,2,Anger,Male,3,1,1.0,424.6823425292969,424.6823425292969,0.0,428.6783752441406,428.6783752441406,0.0,427.68414306640625,427.68414306640625,0.0,1.0,1.0,0.0,'2',1.0965410470962524,1.0965410470962524,0.0,102.0
Anger,stimuli/02f_an_o.bmp,stimuli/18F_AN_O.BMP,stimuli/02f_an_o.bmp,stimuli/EmptyFrame.bmp,stimuli/RedFrame.bmp,2,Anger,Female,3,1,1.0,428.7033996582031,428.7033996582031,0.0,432.6884460449219,432.6884460449219,0.0,431.7119140625,431.7119140625,0.0,1.0,1.0,0.0,'2',1.443178653717041,1.443178653717041,0.0,103.0
Anger,stimuli/22M_AN_O.BMP,stimuli/32M_AN_O.BMP,stimuli/22M_AN_O.BMP,stimuli/EmptyFrame.bmp,stimuli/RedFrame.bmp,2,Anger,Male,3,1,1.0,432.712646484375,432.712646484375,0.0,436.70697021484375,436.70697021484375,0.0,435.72216796875,435.72216796875,0.0,1.0,1.0,0.0,'2',1.1723370552062988,1.1723370552062988,0.0,104.0
Anger,stimuli/12F_AN_O.BMP,stimuli/12F_AN_O.BMP,stimuli/13F_AN_O.BMP,stimuli/EmptyFrame.bmp,stimuli/RedFrame.bmp,1,Anger,Female,3,1,1.0,436.72674560546875,436.72674560546875,0.0,440.7186584472656,440.7186584472656,0.0,439.74169921875,439.74169921875,0.0,1.0,1.0,0.0,'1',0.8746070861816406,0.8746070861816406,0.0,105.0
Anger,stimuli/05F_AN_O.bmp,stimuli/05F_AN_O.bmp,stimuli/16F_AN_O.BMP,stimuli/EmptyFrame.bmp,stimuli/RedFrame.bmp,1,Anger,Female,3,1,1.0,440.74481201171875,440.74481201171875,0.0,444.7320556640625,444.7320556640625,0.0,443.7469482421875,443.7469482421875,0.0,1.0,1.0,0.0,'1',1.7282580137252808,1.7282580137252808,0.0,106.0
Anger,stimuli/21M_AN_O.BMP,stimuli/21M_AN_O.BMP,stimuli/33M_AN_O.BMP,stimuli/EmptyFrame.bmp,stimuli/RedFrame.bmp,1,Anger,Male,3,1,1.0,444.7572021484375,444.7572021484375,0.0,448.74859619140625,448.74859619140625,0.0,447.75579833984375,447.75579833984375,0.0,1.0,1.0,0.0,'1',1.6302947998046875,1.6302947998046875,0.0,107.0
Anger,stimuli/07F_AN_O.BMP,stimuli/07F_AN_O.BMP,stimuli/14F_AN_O.BMP,stimuli/EmptyFrame.bmp,stimuli/RedFrame.bmp,1,Anger,Female,3,1,1.0,448.76947021484375,448.76947021484375,0.0,452.7755126953125,452.7755126953125,0.0,451.7911376953125,451.7911376953125,0.0,1.0,1.0,0.0,'1',1.4282058477401733,1.4282058477401733,0.0,108.0
Anger,stimuli/10F_AN_O.BMP,stimuli/10F_AN_O.BMP,stimuli/11F_AN_O.BMP,stimuli/EmptyFrame.bmp,stimuli/RedFrame.bmp,1,Anger,Female,3,1,1.0,452.8023376464844,452.8023376464844,0.0,456.7865905761719,456.7865905761719,0.0,455.8035583496094,455.8035583496094,0.0,1.0,1.0,0.0,'1',1.161620020866394,1.161620020866394,0.0,109.0

extraInfo
participant,sub006
session,001
date,2025_May_22_0846
expName,HaririTask_Ver2
psychopyVersion,3.0.1
frameRate,None
