TrialType,Top,Left,Right,EmptyFrame,SelectedFrame,Correct,Emotion,Gender,TrialLength,FixationLength,n,GCFaceStartTime_mean,GCFaceStartTime_raw,GCFaceStartTime_std,GCPostFaceFixationEndTime_mean,GCPostFaceFixationEndTime_raw,GCPostFaceFixationEndTime_std,GCPostFaceFixationStartTime_mean,GCPostFaceFixationStartTime_raw,GCPostFaceFixationStartTime_std,key_resp_trial.corr_mean,key_resp_trial.corr_raw,key_resp_trial.corr_std,key_resp_trial.keys_raw,key_resp_trial.rt_mean,key_resp_trial.rt_raw,key_resp_trial.rt_std,order
MatchFaces,stimuli/MatchFaces.bmp,stimuli/EmptyFace.bmp,stimuli/EmptyFace.bmp,stimuli/EmptyFrame.bmp,stimuli/EmptyFrame.bmp,Null,None,None,3,1,1.0,15.321162223815918,15.321162223815918,0.0,19.04604721069336,19.04604721069336,0.0,18.06170082092285,18.06170082092285,0.0,0.0,0.0,0.0,,,,,0.0
Fear,stimuli/23M_FE_O.BMP,stimuli/23M_FE_O.BMP,stimuli/24M_FE_O.BMP,stimuli/EmptyFrame.bmp,stimuli/RedFrame.bmp,1,Fear,Male,3,1,1.0,19.221492767333984,19.221492767333984,0.0,23.05878257751465,23.05878257751465,0.0,22.077890396118164,22.077890396118164,0.0,1.0,1.0,0.0,'1',0.6743167042732239,0.6743167042732239,0.0,1.0
Fear,stimuli/19F_FE_O.BMP,stimuli/18F_FE_O.BMP,stimuli/19F_FE_O.BMP,stimuli/EmptyFrame.bmp,stimuli/RedFrame.bmp,2,Fear,Female,3,1,1.0,23.091407775878906,23.091407775878906,0.0,27.070871353149414,27.070871353149414,0.0,26.09369659423828,26.09369659423828,0.0,1.0,1.0,0.0,'2',0.6695364117622375,0.6695364117622375,0.0,2.0
Fear,stimuli/17F_FE_O.BMP,stimuli/17F_FE_O.BMP,stimuli/16F_FE_O.BMP,stimuli/EmptyFrame.bmp,stimuli/RedFrame.bmp,1,Fear,Female,3,1,1.0,27.096040725708008,27.096040725708008,0.0,31.088558197021484,31.088558197021484,0.0,30.104631423950195,30.104631423950195,0.0,1.0,1.0,0.0,'1',0.6843363046646118,0.6843363046646118,0.0,3.0
Fear,stimuli/21M_FE_O.BMP,stimuli/21M_FE_O.BMP,stimuli/22M_FE_O.BMP,stimuli/EmptyFrame.bmp,stimuli/RedFrame.bmp,1,Fear,Male,3,1,1.0,31.11415672302246,31.11415672302246,0.0,35.09809494018555,35.09809494018555,0.0,34.11886978149414,34.11886978149414,0.0,1.0,1.0,0.0,'1',0.5792390704154968,0.5792390704154968,0.0,4.0
Fear,stimuli/09F_FE_O.BMP,stimuli/07F_FE_O.BMP,stimuli/09F_FE_O.BMP,stimuli/EmptyFrame.bmp,stimuli/RedFrame.bmp,2,Fear,Female,3,1,1.0,35.12897491455078,35.12897491455078,0.0,39.114105224609375,39.114105224609375,0.0,38.13043975830078,38.13043975830078,0.0,1.0,1.0,0.0,'2',0.7040050029754639,0.7040050029754639,0.0,5.0
Fear,stimuli/08F_FE_O.BMP,stimuli/13F_FE_O.BMP,stimuli/08F_FE_O.BMP,stimuli/EmptyFrame.bmp,stimuli/RedFrame.bmp,2,Fear,Female,3,1,1.0,39.141990661621094,39.141990661621094,0.0,43.13325119018555,43.13325119018555,0.0,42.14007568359375,42.14007568359375,0.0,1.0,1.0,0.0,'2',0.7505947947502136,0.7505947947502136,0.0,6.0
Fear,stimuli/07F_FE_O.BMP,stimuli/07F_FE_O.BMP,stimuli/14F_FE_O.BMP,stimuli/EmptyFrame.bmp,stimuli/RedFrame.bmp,1,Fear,Female,3,1,1.0,43.168724060058594,43.168724060058594,0.0,47.148197174072266,47.148197174072266,0.0,46.158451080322266,46.158451080322266,0.0,1.0,1.0,0.0,'1',0.5610625147819519,0.5610625147819519,0.0,7.0
Fear,stimuli/26M_FE_O.BMP,stimuli/26M_FE_O.BMP,stimuli/28M_FE_O.BMP,stimuli/EmptyFrame.bmp,stimuli/RedFrame.bmp,1,Fear,Male,3,1,1.0,47.1749153137207,47.1749153137207,0.0,51.1594352722168,51.1594352722168,0.0,50.17707443237305,50.17707443237305,0.0,1.0,1.0,0.0,'1',0.7370926141738892,0.7370926141738892,0.0,8.0
Fear,stimuli/10F_FE_O.BMP,stimuli/11F_FE_O.BMP,stimuli/10F_FE_O.BMP,stimuli/EmptyFrame.bmp,stimuli/RedFrame.bmp,2,Fear,Female,3,1,1.0,51.187522888183594,51.187522888183594,0.0,55.18345642089844,55.18345642089844,0.0,54.1844596862793,54.1844596862793,0.0,1.0,1.0,0.0,'2',0.5531334280967712,0.5531334280967712,0.0,9.0
Fear,stimuli/29M_FE_O.BMP,stimuli/30M_FE_O.BMP,stimuli/29M_FE_O.BMP,stimuli/EmptyFrame.bmp,stimuli/RedFrame.bmp,2,Fear,Male,3,1,1.0,55.21381378173828,55.21381378173828,0.0,59.203041076660156,59.203041076660156,0.0,58.213775634765625,58.213775634765625,0.0,1.0,1.0,0.0,'2',0.5455142855644226,0.5455142855644226,0.0,10.0
MatchFaces,stimuli/MatchFaces.bmp,stimuli/EmptyFace.bmp,stimuli/EmptyFace.bmp,stimuli/EmptyFrame.bmp,stimuli/EmptyFrame.bmp,Null,None,None,3,1,1.0,59.365272521972656,59.365272521972656,0.0,63.20528030395508,63.20528030395508,0.0,62.21656799316406,62.21656799316406,0.0,0.0,0.0,0.0,,,,,11.0
Neutral,stimuli/07F_NE_C.BMP,stimuli/07F_NE_C.BMP,stimuli/14F_NE_C.BMP,stimuli/EmptyFrame.bmp,stimuli/RedFrame.bmp,1,Neutral,Female,3,1,1.0,63.26386642456055,63.26386642456055,0.0,67.2155990600586,67.2155990600586,0.0,66.23417663574219,66.23417663574219,0.0,1.0,1.0,0.0,'1',0.6338316202163696,0.6338316202163696,0.0,12.0
Neutral,stimuli/25M_NE_C.BMP,stimuli/29M_NE_C.BMP,stimuli/25M_NE_C.BMP,stimuli/EmptyFrame.bmp,stimuli/RedFrame.bmp,2,Neutral,Male,3,1,1.0,67.24555206298828,67.24555206298828,0.0,71.23773193359375,71.23773193359375,0.0,70.24307250976562,70.24307250976562,0.0,1.0,1.0,0.0,'2',0.5387409925460815,0.5387409925460815,0.0,13.0
Neutral,stimuli/26M_NE_C.BMP,stimuli/26M_NE_C.BMP,stimuli/28M_NE_C.BMP,stimuli/EmptyFrame.bmp,stimuli/RedFrame.bmp,1,Neutral,Male,3,1,1.0,71.26593017578125,71.26593017578125,0.0,75.24634552001953,75.24634552001953,0.0,74.27396392822266,74.27396392822266,0.0,1.0,1.0,0.0,'1',0.7275295257568359,0.7275295257568359,0.0,14.0
Neutral,stimuli/08F_NE_C.BMP,stimuli/13F_NE_C.BMP,stimuli/08F_NE_C.BMP,stimuli/EmptyFrame.bmp,stimuli/RedFrame.bmp,2,Neutral,Female,3,1,1.0,75.27580261230469,75.27580261230469,0.0,79.26344299316406,79.26344299316406,0.0,78.26880645751953,78.26880645751953,0.0,1.0,1.0,0.0,'2',0.6141878962516785,0.6141878962516785,0.0,15.0
Neutral,stimuli/09F_NE_C.BMP,stimuli/09F_NE_C.BMP,stimuli/12F_NE_C.BMP,stimuli/EmptyFrame.bmp,stimuli/RedFrame.bmp,1,Neutral,Female,3,1,1.0,79.29415893554688,79.29415893554688,0.0,83.2782974243164,83.2782974243164,0.0,82.29009246826172,82.29009246826172,0.0,1.0,1.0,0.0,'1',0.7054005265235901,0.7054005265235901,0.0,16.0
Neutral,stimuli/27M_NE_C.BMP,stimuli/26M_NE_C.BMP,stimuli/27M_NE_C.BMP,stimuli/EmptyFrame.bmp,stimuli/RedFrame.bmp,2,Neutral,Male,3,1,1.0,83.30526733398438,83.30526733398438,0.0,87.29033660888672,87.29033660888672,0.0,86.30951690673828,86.30951690673828,0.0,1.0,1.0,0.0,'2',0.5407071709632874,0.5407071709632874,0.0,17.0
Neutral,stimuli/28M_NE_C.BMP,stimuli/28M_NE_C.BMP,stimuli/25M_NE_C.BMP,stimuli/EmptyFrame.bmp,stimuli/RedFrame.bmp,1,Neutral,Male,3,1,1.0,87.31734466552734,87.31734466552734,0.0,91.30067443847656,91.30067443847656,0.0,90.30972290039062,90.30972290039062,0.0,1.0,1.0,0.0,'1',0.8313938975334167,0.8313938975334167,0.0,18.0
Neutral,stimuli/10F_NE_C.BMP,stimuli/11F_NE_C.BMP,stimuli/10F_NE_C.BMP,stimuli/EmptyFrame.bmp,stimuli/RedFrame.bmp,2,Neutral,Female,3,1,1.0,91.33221435546875,91.33221435546875,0.0,95.31127166748047,95.31127166748047,0.0,94.32814025878906,94.32814025878906,0.0,1.0,1.0,0.0,'2',0.48150140047073364,0.48150140047073364,0.0,19.0
Neutral,stimuli/29M_NE_C.BMP,stimuli/29M_NE_C.BMP,stimuli/24M_NE_C.BMP,stimuli/EmptyFrame.bmp,stimuli/RedFrame.bmp,1,Neutral,Male,3,1,1.0,95.3394775390625,95.3394775390625,0.0,99.32339477539062,99.32339477539062,0.0,98.34053039550781,98.34053039550781,0.0,1.0,1.0,0.0,'1',0.826154887676239,0.826154887676239,0.0,20.0
Neutral,stimuli/11F_NE_C.BMP,stimuli/10F_NE_C.BMP,stimuli/11F_NE_C.BMP,stimuli/EmptyFrame.bmp,stimuli/RedFrame.bmp,2,Neutral,Female,3,1,1.0,99.34666442871094,99.34666442871094,0.0,103.3326644897461,103.3326644897461,0.0,102.35227966308594,102.35227966308594,0.0,1.0,1.0,0.0,'2',0.510689914226532,0.510689914226532,0.0,21.0
MatchShape,stimuli/MatchShapes.bmp,stimuli/EmptyFace.bmp,stimuli/EmptyFace.bmp,stimuli/EmptyFrame.bmp,stimuli/EmptyFrame.bmp,Null,None,None,3,1,1.0,103.36167907714844,103.36167907714844,0.0,107.3426513671875,107.3426513671875,0.0,106.3469009399414,106.3469009399414,0.0,0.0,0.0,0.0,,,,,22.0
Shape,stimuli/circle.bmp,stimuli/vertical.bmp,stimuli/circle.bmp,stimuli/EmptyFrame.bmp,stimuli/RedFrame.bmp,2,Shape,None,3,1,1.0,107.38279724121094,107.38279724121094,0.0,111.3581314086914,111.3581314086914,0.0,110.37584686279297,110.37584686279297,0.0,1.0,1.0,0.0,'2',0.678480327129364,0.678480327129364,0.0,23.0
Shape,stimuli/horizontal.bmp,stimuli/circle.bmp,stimuli/horizontal.bmp,stimuli/EmptyFrame.bmp,stimuli/RedFrame.bmp,2,Shape,None,3,1,1.0,111.38536071777344,111.38536071777344,0.0,115.36949920654297,115.36949920654297,0.0,114.38651275634766,114.38651275634766,0.0,1.0,1.0,0.0,'2',0.8042626976966858,0.8042626976966858,0.0,24.0
Shape,stimuli/circle.bmp,stimuli/vertical.bmp,stimuli/circle.bmp,stimuli/EmptyFrame.bmp,stimuli/RedFrame.bmp,2,Shape,None,3,1,1.0,115.39219665527344,115.39219665527344,0.0,119.39089965820312,119.39089965820312,0.0,118.39767456054688,118.39767456054688,0.0,1.0,1.0,0.0,'2',0.6334109902381897,0.6334109902381897,0.0,25.0
Shape,stimuli/vertical.bmp,stimuli/circle.bmp,stimuli/vertical.bmp,stimuli/EmptyFrame.bmp,stimuli/RedFrame.bmp,2,Shape,None,3,1,1.0,119.41463470458984,119.41463470458984,0.0,123.40372467041016,123.40372467041016,0.0,122.42129516601562,122.42129516601562,0.0,1.0,1.0,0.0,'2',0.8304724097251892,0.8304724097251892,0.0,26.0
Shape,stimuli/vertical.bmp,stimuli/horizontal.bmp,stimuli/vertical.bmp,stimuli/EmptyFrame.bmp,stimuli/RedFrame.bmp,2,Shape,None,3,1,1.0,123.42586517333984,123.42586517333984,0.0,127.42381286621094,127.42381286621094,0.0,126.42786407470703,126.42786407470703,0.0,0.0,0.0,0.0,'1',0.7991116046905518,0.7991116046905518,0.0,27.0
Shape,stimuli/horizontal.bmp,stimuli/horizontal.bmp,stimuli/vertical.bmp,stimuli/EmptyFrame.bmp,stimuli/RedFrame.bmp,1,Shape,None,3,1,1.0,127.44601440429688,127.44601440429688,0.0,131.43724060058594,131.43724060058594,0.0,130.45419311523438,130.45419311523438,0.0,1.0,1.0,0.0,'1',0.6819792985916138,0.6819792985916138,0.0,28.0
Shape,stimuli/horizontal.bmp,stimuli/circle.bmp,stimuli/horizontal.bmp,stimuli/EmptyFrame.bmp,stimuli/RedFrame.bmp,2,Shape,None,3,1,1.0,131.4575653076172,131.4575653076172,0.0,135.447265625,135.447265625,0.0,134.46046447753906,134.46046447753906,0.0,1.0,1.0,0.0,'2',0.4998197853565216,0.4998197853565216,0.0,29.0
Shape,stimuli/circle.bmp,stimuli/circle.bmp,stimuli/vertical.bmp,stimuli/EmptyFrame.bmp,stimuli/RedFrame.bmp,1,Shape,None,3,1,1.0,135.4698944091797,135.4698944091797,0.0,139.46258544921875,139.46258544921875,0.0,138.47032165527344,138.47032165527344,0.0,1.0,1.0,0.0,'1',0.5540375709533691,0.5540375709533691,0.0,30.0
Shape,stimuli/vertical.bmp,stimuli/horizontal.bmp,stimuli/vertical.bmp,stimuli/EmptyFrame.bmp,stimuli/RedFrame.bmp,2,Shape,None,3,1,1.0,139.48399353027344,139.48399353027344,0.0,143.48233032226562,143.48233032226562,0.0,142.4956512451172,142.4956512451172,0.0,1.0,1.0,0.0,'2',1.2432146072387695,1.2432146072387695,0.0,31.0
Shape,stimuli/vertical.bmp,stimuli/vertical.bmp,stimuli/horizontal.bmp,stimuli/EmptyFrame.bmp,stimuli/RedFrame.bmp,1,Shape,None,3,1,1.0,143.5069580078125,143.5069580078125,0.0,147.49777221679688,147.49777221679688,0.0,146.51039123535156,146.51039123535156,0.0,1.0,1.0,0.0,'1',0.7160779237747192,0.7160779237747192,0.0,32.0
MatchFaces,stimuli/MatchFaces.bmp,stimuli/EmptyFace.bmp,stimuli/EmptyFace.bmp,stimuli/EmptyFrame.bmp,stimuli/EmptyFrame.bmp,Null,None,None,3,1,1.0,147.6788787841797,147.6788787841797,0.0,151.50645446777344,151.50645446777344,0.0,150.51318359375,150.51318359375,0.0,0.0,0.0,0.0,,,,,33.0
Anger,stimuli/20M_AN_O.BMP,stimuli/34M_AN_O.BMP,stimuli/20M_AN_O.BMP,stimuli/EmptyFrame.bmp,stimuli/RedFrame.bmp,2,Anger,Male,3,1,1.0,151.5829620361328,151.5829620361328,0.0,155.5325164794922,155.5325164794922,0.0,154.54405212402344,154.54405212402344,0.0,1.0,1.0,0.0,'2',0.6827371716499329,0.6827371716499329,0.0,34.0
Anger,stimuli/01F_AN_O.bmp,stimuli/19F_AN_O.BMP,stimuli/01F_AN_O.bmp,stimuli/EmptyFrame.bmp,stimuli/RedFrame.bmp,2,Anger,Female,3,1,1.0,155.56459045410156,155.56459045410156,0.0,159.5531005859375,159.5531005859375,0.0,158.5635528564453,158.5635528564453,0.0,1.0,1.0,0.0,'2',0.5422462821006775,0.5422462821006775,0.0,35.0
Anger,stimuli/06F_AN_O.bmp,stimuli/15F_AN_O.BMP,stimuli/06F_AN_O.bmp,stimuli/EmptyFrame.bmp,stimuli/RedFrame.bmp,2,Anger,Female,3,1,1.0,159.5843505859375,159.5843505859375,0.0,163.57286071777344,163.57286071777344,0.0,162.5826416015625,162.5826416015625,0.0,1.0,1.0,0.0,'2',0.8069720268249512,0.8069720268249512,0.0,36.0
Anger,stimuli/42M_AN_O.BMP,stimuli/42M_AN_O.BMP,stimuli/43M_AN_O.BMP,stimuli/EmptyFrame.bmp,stimuli/RedFrame.bmp,1,Anger,Male,3,1,1.0,163.6050567626953,163.6050567626953,0.0,167.58287048339844,167.58287048339844,0.0,166.5960235595703,166.5960235595703,0.0,1.0,1.0,0.0,'1',0.9860252737998962,0.9860252737998962,0.0,37.0
Anger,stimuli/40M_AN_O.BMP,stimuli/41M_AN_O.BMP,stimuli/40M_AN_O.BMP,stimuli/EmptyFrame.bmp,stimuli/RedFrame.bmp,2,Anger,Male,3,1,1.0,167.61331176757812,167.61331176757812,0.0,171.59603881835938,171.59603881835938,0.0,170.61996459960938,170.61996459960938,0.0,1.0,1.0,0.0,'2',0.5111021995544434,0.5111021995544434,0.0,38.0
Anger,stimuli/08F_AN_O.BMP,stimuli/08F_AN_O.BMP,stimuli/13F_AN_O.BMP,stimuli/EmptyFrame.bmp,stimuli/RedFrame.bmp,1,Anger,Female,3,1,1.0,171.62477111816406,171.62477111816406,0.0,175.61260986328125,175.61260986328125,0.0,174.63026428222656,174.63026428222656,0.0,1.0,1.0,0.0,'1',0.8566027879714966,0.8566027879714966,0.0,39.0
Anger,stimuli/09F_AN_O.BMP,stimuli/12F_AN_O.BMP,stimuli/09F_AN_O.BMP,stimuli/EmptyFrame.bmp,stimuli/RedFrame.bmp,2,Anger,Female,3,1,1.0,175.64266967773438,175.64266967773438,0.0,179.63180541992188,179.63180541992188,0.0,178.63589477539062,178.63589477539062,0.0,1.0,1.0,0.0,'2',0.8264418244361877,0.8264418244361877,0.0,40.0
Anger,stimuli/34M_AN_O.BMP,stimuli/35M_AN_O.BMP,stimuli/34M_AN_O.BMP,stimuli/EmptyFrame.bmp,stimuli/RedFrame.bmp,2,Anger,Male,3,1,1.0,179.66156005859375,179.66156005859375,0.0,183.65586853027344,183.65586853027344,0.0,182.6668243408203,182.6668243408203,0.0,1.0,1.0,0.0,'2',1.0301756858825684,1.0301756858825684,0.0,41.0
Anger,stimuli/24M_AN_O.BMP,stimuli/24M_AN_O.BMP,stimuli/30M_AN_O.BMP,stimuli/EmptyFrame.bmp,stimuli/RedFrame.bmp,1,Anger,Male,3,1,1.0,183.6810302734375,183.6810302734375,0.0,187.6789093017578,187.6789093017578,0.0,186.6967010498047,186.6967010498047,0.0,1.0,1.0,0.0,'1',0.9253482222557068,0.9253482222557068,0.0,42.0
Anger,stimuli/03F_AN_O.bmp,stimuli/03F_AN_O.bmp,stimuli/17F_AN_O.BMP,stimuli/EmptyFrame.bmp,stimuli/RedFrame.bmp,1,Anger,Female,3,1,1.0,187.712646484375,187.712646484375,0.0,191.6968536376953,191.6968536376953,0.0,190.70262145996094,190.70262145996094,0.0,1.0,1.0,0.0,'1',1.0338890552520752,1.0338890552520752,0.0,43.0
MatchFaces,stimuli/MatchFaces.bmp,stimuli/EmptyFace.bmp,stimuli/EmptyFace.bmp,stimuli/EmptyFrame.bmp,stimuli/EmptyFrame.bmp,Null,None,None,3,1,1.0,191.90020751953125,191.90020751953125,0.0,195.70904541015625,195.70904541015625,0.0,194.71389770507812,194.71389770507812,0.0,0.0,0.0,0.0,,,,,44.0
Happy,stimuli/06F_HA_O.bmp,stimuli/07F_HA_O.BMP,stimuli/06F_HA_O.bmp,stimuli/EmptyFrame.bmp,stimuli/RedFrame.bmp,2,Happy,Female,3,1,1.0,195.7935791015625,195.7935791015625,0.0,199.73085021972656,199.73085021972656,0.0,198.74122619628906,198.74122619628906,0.0,1.0,1.0,0.0,'2',0.5469112992286682,0.5469112992286682,0.0,45.0
Happy,stimuli/13F_HA_O.BMP,stimuli/13F_HA_O.BMP,stimuli/12F_HA_O.BMP,stimuli/EmptyFrame.bmp,stimuli/RedFrame.bmp,1,Happy,Female,3,1,1.0,199.761474609375,199.761474609375,0.0,203.74488830566406,203.74488830566406,0.0,202.76708984375,202.76708984375,0.0,1.0,1.0,0.0,'1',0.6448436975479126,0.6448436975479126,0.0,46.0
Happy,stimuli/41M_HA_O.BMP,stimuli/41M_HA_O.BMP,stimuli/40M_HA_O.BMP,stimuli/EmptyFrame.bmp,stimuli/RedFrame.bmp,1,Happy,Male,3,1,1.0,203.7745361328125,203.7745361328125,0.0,207.76089477539062,207.76089477539062,0.0,206.764892578125,206.764892578125,0.0,1.0,1.0,0.0,'1',0.655307412147522,0.655307412147522,0.0,47.0
Happy,stimuli/03F_HA_O.bmp,stimuli/05F_HA_O.bmp,stimuli/03F_HA_O.bmp,stimuli/EmptyFrame.bmp,stimuli/RedFrame.bmp,2,Happy,Female,3,1,1.0,207.78915405273438,207.78915405273438,0.0,211.7793731689453,211.7793731689453,0.0,210.79641723632812,210.79641723632812,0.0,1.0,1.0,0.0,'2',0.70083087682724,0.70083087682724,0.0,48.0
Happy,stimuli/24M_HA_O.BMP,stimuli/24M_HA_O.BMP,stimuli/25M_HA_O.BMP,stimuli/EmptyFrame.bmp,stimuli/RedFrame.bmp,1,Happy,Male,3,1,1.0,211.80987548828125,211.80987548828125,0.0,215.79043579101562,215.79043579101562,0.0,214.80642700195312,214.80642700195312,0.0,1.0,1.0,0.0,'1',0.5636883974075317,0.5636883974075317,0.0,49.0
Happy,stimuli/19F_HA_O.BMP,stimuli/19F_HA_O.BMP,stimuli/18F_HA_O.BMP,stimuli/EmptyFrame.bmp,stimuli/RedFrame.bmp,1,Happy,Female,3,1,1.0,215.82113647460938,215.82113647460938,0.0,219.80105590820312,219.80105590820312,0.0,218.81829833984375,218.81829833984375,0.0,1.0,1.0,0.0,'1',1.0938680171966553,1.0938680171966553,0.0,50.0
Happy,stimuli/01F_HA_O.bmp,stimuli/01F_HA_O.bmp,stimuli/02F_HA_O.bmp,stimuli/EmptyFrame.bmp,stimuli/RedFrame.bmp,1,Happy,Female,3,1,1.0,219.8325958251953,219.8325958251953,0.0,223.82044982910156,223.82044982910156,0.0,222.83599853515625,222.83599853515625,0.0,1.0,1.0,0.0,'1',0.5960698127746582,0.5960698127746582,0.0,51.0
Happy,stimuli/22M_HA_O.BMP,stimuli/23M_HA_O.BMP,stimuli/22M_HA_O.BMP,stimuli/EmptyFrame.bmp,stimuli/RedFrame.bmp,2,Happy,Male,3,1,1.0,223.8481903076172,223.8481903076172,0.0,227.8311004638672,227.8311004638672,0.0,226.85650634765625,226.85650634765625,0.0,1.0,1.0,0.0,'2',0.7500702142715454,0.7500702142715454,0.0,52.0
Happy,stimuli/35M_HA_O.BMP,stimuli/34M_HA_O.BMP,stimuli/35M_HA_O.BMP,stimuli/EmptyFrame.bmp,stimuli/RedFrame.bmp,2,Happy,Male,3,1,1.0,227.86257934570312,227.86257934570312,0.0,231.85630798339844,231.85630798339844,0.0,230.86111450195312,230.86111450195312,0.0,1.0,1.0,0.0,'2',1.0141562223434448,1.0141562223434448,0.0,53.0
Happy,stimuli/39M_HA_O.BMP,stimuli/38M_HA_O.BMP,stimuli/39M_HA_O.BMP,stimuli/EmptyFrame.bmp,stimuli/RedFrame.bmp,2,Happy,Male,3,1,1.0,231.8860626220703,231.8860626220703,0.0,235.879638671875,235.879638671875,0.0,234.89340209960938,234.89340209960938,0.0,1.0,1.0,0.0,'2',0.6374921798706055,0.6374921798706055,0.0,54.0
Match Shape,stimuli/MatchShapes.bmp,stimuli/EmptyFace.bmp,stimuli/EmptyFace.bmp,stimuli/EmptyFrame.bmp,stimuli/EmptyFrame.bmp,Null,None,None,3,1,1.0,235.90354919433594,235.90354919433594,0.0,239.88058471679688,239.88058471679688,0.0,238.8914031982422,238.8914031982422,0.0,0.0,0.0,0.0,,,,,55.0
Shape,stimuli/horizontal.bmp,stimuli/horizontal.bmp,stimuli/vertical.bmp,stimuli/EmptyFrame.bmp,stimuli/RedFrame.bmp,1,Shape,None,3,1,1.0,239.91664123535156,239.91664123535156,0.0,243.89724731445312,243.89724731445312,0.0,242.90304565429688,242.90304565429688,0.0,1.0,1.0,0.0,'1',0.8137006759643555,0.8137006759643555,0.0,56.0
Shape,stimuli/horizontal.bmp,stimuli/horizontal.bmp,stimuli/circle.bmp,stimuli/EmptyFrame.bmp,stimuli/RedFrame.bmp,1,Shape,None,3,1,1.0,243.92251586914062,243.92251586914062,0.0,247.90870666503906,247.90870666503906,0.0,246.92340087890625,246.92340087890625,0.0,1.0,1.0,0.0,'1',0.60606449842453,0.60606449842453,0.0,57.0
Shape,stimuli/circle.bmp,stimuli/vertical.bmp,stimuli/circle.bmp,stimuli/EmptyFrame.bmp,stimuli/RedFrame.bmp,2,Shape,None,3,1,1.0,247.93612670898438,247.93612670898438,0.0,251.92662048339844,251.92662048339844,0.0,250.9334716796875,250.9334716796875,0.0,1.0,1.0,0.0,'2',0.5376873016357422,0.5376873016357422,0.0,58.0
Shape,stimuli/vertical.bmp,stimuli/vertical.bmp,stimuli/circle.bmp,stimuli/EmptyFrame.bmp,stimuli/RedFrame.bmp,1,Shape,None,3,1,1.0,251.9497528076172,251.9497528076172,0.0,255.94371032714844,255.94371032714844,0.0,254.95895385742188,254.95895385742188,0.0,1.0,1.0,0.0,'1',1.7001054286956787,1.7001054286956787,0.0,59.0
Shape,stimuli/horizontal.bmp,stimuli/horizontal.bmp,stimuli/circle.bmp,stimuli/EmptyFrame.bmp,stimuli/RedFrame.bmp,1,Shape,None,3,1,1.0,255.96922302246094,255.96922302246094,0.0,259.9635925292969,259.9635925292969,0.0,258.98095703125,258.98095703125,0.0,1.0,1.0,0.0,'1',0.5713781714439392,0.5713781714439392,0.0,60.0
Shape,stimuli/vertical.bmp,stimuli/vertical.bmp,stimuli/circle.bmp,stimuli/EmptyFrame.bmp,stimuli/RedFrame.bmp,1,Shape,None,3,1,1.0,259.9889831542969,259.9889831542969,0.0,263.9813537597656,263.9813537597656,0.0,262.9876708984375,262.9876708984375,0.0,1.0,1.0,0.0,'1',0.550452709197998,0.550452709197998,0.0,61.0
Shape,stimuli/horizontal.bmp,stimuli/circle.bmp,stimuli/horizontal.bmp,stimuli/EmptyFrame.bmp,stimuli/RedFrame.bmp,2,Shape,None,3,1,1.0,264.00811767578125,264.00811767578125,0.0,268.0041198730469,268.0041198730469,0.0,267.0072021484375,267.0072021484375,0.0,1.0,1.0,0.0,'2',0.6551619172096252,0.6551619172096252,0.0,62.0
Shape,stimuli/circle.bmp,stimuli/circle.bmp,stimuli/horizontal.bmp,stimuli/EmptyFrame.bmp,stimuli/RedFrame.bmp,1,Shape,None,3,1,1.0,268.0263977050781,268.0263977050781,0.0,272.0171813964844,272.0171813964844,0.0,271.02484130859375,271.02484130859375,0.0,1.0,1.0,0.0,'1',0.6401662826538086,0.6401662826538086,0.0,63.0
Shape,stimuli/circle.bmp,stimuli/horizontal.bmp,stimuli/circle.bmp,stimuli/EmptyFrame.bmp,stimuli/RedFrame.bmp,2,Shape,None,3,1,1.0,272.0394592285156,272.0394592285156,0.0,276.03143310546875,276.03143310546875,0.0,275.0296325683594,275.0296325683594,0.0,0.0,0.0,0.0,,,,,64.0
Shape,stimuli/vertical.bmp,stimuli/vertical.bmp,stimuli/horizontal.bmp,stimuli/EmptyFrame.bmp,stimuli/RedFrame.bmp,1,Shape,None,3,1,1.0,276.0592956542969,276.0592956542969,0.0,280.0344543457031,280.0344543457031,0.0,279.04754638671875,279.04754638671875,0.0,0.0,0.0,0.0,,,,,65.0
MatchFaces,stimuli/MatchFaces.bmp,stimuli/EmptyFace.bmp,stimuli/EmptyFace.bmp,stimuli/EmptyFrame.bmp,stimuli/EmptyFrame.bmp,Null,None,None,3,1,1.0,280.2423095703125,280.2423095703125,0.0,284.0406799316406,284.0406799316406,0.0,283.0462341308594,283.0462341308594,0.0,0.0,0.0,0.0,,,,,66.0
Neutral,stimuli/20M_NE_C.BMP,stimuli/21M_NE_C.BMP,stimuli/20M_NE_C.BMP,stimuli/EmptyFrame.bmp,stimuli/RedFrame.bmp,2,Neutral,Male,3,1,1.0,284.09906005859375,284.09906005859375,0.0,288.0657958984375,288.0657958984375,0.0,287.07757568359375,287.07757568359375,0.0,1.0,1.0,0.0,'2',1.001815915107727,1.001815915107727,0.0,67.0
Neutral,stimuli/01F_NE_C.bmp,stimuli/01F_NE_C.bmp,stimuli/02F_NE_C.bmp,stimuli/EmptyFrame.bmp,stimuli/RedFrame.bmp,1,Neutral,Female,3,1,1.0,288.0983581542969,288.0983581542969,0.0,292.0775146484375,292.0775146484375,0.0,291.08905029296875,291.08905029296875,0.0,1.0,1.0,0.0,'1',0.5258015990257263,0.5258015990257263,0.0,68.0
Neutral,stimuli/22M_NE_C.BMP,stimuli/23M_NE_C.BMP,stimuli/22M_NE_C.BMP,stimuli/EmptyFrame.bmp,stimuli/RedFrame.bmp,2,Neutral,Male,3,1,1.0,292.10955810546875,292.10955810546875,0.0,296.0917053222656,296.0917053222656,0.0,295.10406494140625,295.10406494140625,0.0,1.0,1.0,0.0,'2',0.5729957818984985,0.5729957818984985,0.0,69.0
Neutral,stimuli/24M_NE_C.BMP,stimuli/24M_NE_C.BMP,stimuli/25M_NE_C.BMP,stimuli/EmptyFrame.bmp,stimuli/RedFrame.bmp,1,Neutral,Male,3,1,1.0,296.1158447265625,296.1158447265625,0.0,300.11163330078125,300.11163330078125,0.0,299.1234130859375,299.1234130859375,0.0,1.0,1.0,0.0,'1',0.6261857748031616,0.6261857748031616,0.0,70.0
Neutral,stimuli/03F_NE_C.bmp,stimuli/05F_NE_C.bmp,stimuli/03F_NE_C.bmp,stimuli/EmptyFrame.bmp,stimuli/RedFrame.bmp,2,Neutral,Female,3,1,1.0,300.135009765625,300.135009765625,0.0,304.1457214355469,304.1457214355469,0.0,303.1368103027344,303.1368103027344,0.0,1.0,1.0,0.0,'2',0.559499979019165,0.559499979019165,0.0,71.0
Neutral,stimuli/26M_NE_C.BMP,stimuli/26M_NE_C.BMP,stimuli/27M_NE_C.BMP,stimuli/EmptyFrame.bmp,stimuli/RedFrame.bmp,1,Neutral,Male,3,1,1.0,304.1718444824219,304.1718444824219,0.0,308.1592102050781,308.1592102050781,0.0,307.183349609375,307.183349609375,0.0,1.0,1.0,0.0,'1',0.807142972946167,0.807142972946167,0.0,72.0
Neutral,stimuli/06F_NE_C.bmp,stimuli/07F_NE_C.BMP,stimuli/06F_NE_C.bmp,stimuli/EmptyFrame.bmp,stimuli/RedFrame.bmp,2,Neutral,Female,3,1,1.0,308.187744140625,308.187744140625,0.0,312.1772766113281,312.1772766113281,0.0,311.194580078125,311.194580078125,0.0,1.0,1.0,0.0,'2',0.6397867202758789,0.6397867202758789,0.0,73.0
Neutral,stimuli/08F_NE_C.BMP,stimuli/08F_NE_C.BMP,stimuli/09F_NE_C.BMP,stimuli/EmptyFrame.bmp,stimuli/RedFrame.bmp,1,Neutral,Female,3,1,1.0,312.202880859375,312.202880859375,0.0,316.1971740722656,316.1971740722656,0.0,315.21435546875,315.21435546875,0.0,1.0,1.0,0.0,'1',0.537925124168396,0.537925124168396,0.0,74.0
Neutral,stimuli/28M_NE_C.BMP,stimuli/29M_NE_C.BMP,stimuli/28M_NE_C.BMP,stimuli/EmptyFrame.bmp,stimuli/RedFrame.bmp,2,Neutral,Male,3,1,1.0,316.2223815917969,316.2223815917969,0.0,320.2119445800781,320.2119445800781,0.0,319.2234191894531,319.2234191894531,0.0,1.0,1.0,0.0,'2',0.5199388265609741,0.5199388265609741,0.0,75.0
Neutral,stimuli/10F_NE_C.BMP,stimuli/10F_NE_C.BMP,stimuli/06F_NE_C.bmp,stimuli/EmptyFrame.bmp,stimuli/RedFrame.bmp,1,Neutral,Female,3,1,1.0,320.2353515625,320.2353515625,0.0,324.2330627441406,324.2330627441406,0.0,323.2366638183594,323.2366638183594,0.0,1.0,1.0,0.0,'1',1.1910089254379272,1.1910089254379272,0.0,76.0
MatchFaces,stimuli/MatchFaces.bmp,stimuli/EmptyFace.bmp,stimuli/EmptyFace.bmp,stimuli/EmptyFrame.bmp,stimuli/EmptyFrame.bmp,Null,None,None,3,1,1.0,324.4128112792969,324.4128112792969,0.0,328.2368469238281,328.2368469238281,0.0,327.24755859375,327.24755859375,0.0,0.0,0.0,0.0,,,,,77.0
Happy,stimuli/28M_HA_O.BMP,stimuli/29M_HA_O.BMP,stimuli/28M_HA_O.BMP,stimuli/EmptyFrame.bmp,stimuli/RedFrame.bmp,2,Happy,Male,3,1,1.0,328.300048828125,328.300048828125,0.0,332.2492980957031,332.2492980957031,0.0,331.260009765625,331.260009765625,0.0,1.0,1.0,0.0,'2',0.7252922058105469,0.7252922058105469,0.0,78.0
Happy,stimuli/10F_HA_O.BMP,stimuli/10F_HA_O.BMP,stimuli/06F_HA_O.bmp,stimuli/EmptyFrame.bmp,stimuli/RedFrame.bmp,1,Happy,Female,3,1,1.0,332.27728271484375,332.27728271484375,0.0,336.2640075683594,336.2640075683594,0.0,335.2784423828125,335.2784423828125,0.0,1.0,1.0,0.0,'1',0.5356870293617249,0.5356870293617249,0.0,79.0
Happy,stimuli/26M_HA_O.BMP,stimuli/26M_HA_O.BMP,stimuli/27M_HA_O.BMP,stimuli/EmptyFrame.bmp,stimuli/RedFrame.bmp,1,Happy,Male,3,1,1.0,336.29290771484375,336.29290771484375,0.0,340.28717041015625,340.28717041015625,0.0,339.2938537597656,339.2938537597656,0.0,1.0,1.0,0.0,'1',0.8342698812484741,0.8342698812484741,0.0,80.0
Happy,stimuli/20M_HA_O.BMP,stimuli/21M_HA_O.BMP,stimuli/20M_HA_O.BMP,stimuli/EmptyFrame.bmp,stimuli/RedFrame.bmp,2,Happy,Male,3,1,1.0,340.3149719238281,340.3149719238281,0.0,344.2963562011719,344.2963562011719,0.0,343.31585693359375,343.31585693359375,0.0,0.0,0.0,0.0,'1',0.8510670065879822,0.8510670065879822,0.0,81.0
Happy,stimuli/37M_HA_O.BMP,stimuli/37M_HA_O.BMP,stimuli/36M_HA_O.BMP,stimuli/EmptyFrame.bmp,stimuli/RedFrame.bmp,1,Happy,Male,3,1,1.0,344.3237609863281,344.3237609863281,0.0,348.3072509765625,348.3072509765625,0.0,347.330322265625,347.330322265625,0.0,1.0,1.0,0.0,'1',0.8679507970809937,0.8679507970809937,0.0,82.0
Happy,stimuli/43M_HA_O.BMP,stimuli/42M_HA_O.BMP,stimuli/43M_HA_O.BMP,stimuli/EmptyFrame.bmp,stimuli/RedFrame.bmp,2,Happy,Male,3,1,1.0,348.3367004394531,348.3367004394531,0.0,352.3248291015625,352.3248291015625,0.0,351.3289794921875,351.3289794921875,0.0,1.0,1.0,0.0,'2',0.6196668744087219,0.6196668744087219,0.0,83.0
Happy,stimuli/11F_HA_O.BMP,stimuli/10F_HA_O.BMP,stimuli/11F_HA_O.BMP,stimuli/EmptyFrame.bmp,stimuli/RedFrame.bmp,2,Happy,Female,3,1,1.0,352.3489990234375,352.3489990234375,0.0,356.34075927734375,356.34075927734375,0.0,355.3515319824219,355.3515319824219,0.0,1.0,1.0,0.0,'2',0.6428050994873047,0.6428050994873047,0.0,84.0
Happy,stimuli/17F_HA_O.BMP,stimuli/16F_HA_O.BMP,stimuli/17F_HA_O.BMP,stimuli/EmptyFrame.bmp,stimuli/RedFrame.bmp,2,Happy,Female,3,1,1.0,356.366455078125,356.366455078125,0.0,360.3552551269531,360.3552551269531,0.0,359.3627624511719,359.3627624511719,0.0,1.0,1.0,0.0,'2',1.0869853496551514,1.0869853496551514,0.0,85.0
Happy,stimuli/15F_HA_O.BMP,stimuli/15F_HA_O.BMP,stimuli/14F_HA_O.BMP,stimuli/EmptyFrame.bmp,stimuli/RedFrame.bmp,1,Happy,Female,3,1,1.0,360.3825988769531,360.3825988769531,0.0,364.3704833984375,364.3704833984375,0.0,363.3802795410156,363.3802795410156,0.0,1.0,1.0,0.0,'1',0.9055290818214417,0.9055290818214417,0.0,86.0
Happy,stimuli/08F_HA_O.BMP,stimuli/08F_HA_O.BMP,stimuli/09F_HA_O.BMP,stimuli/EmptyFrame.bmp,stimuli/RedFrame.bmp,1,Happy,Female,3,1,1.0,364.3980712890625,364.3980712890625,0.0,368.3806457519531,368.3806457519531,0.0,367.4059143066406,367.4059143066406,0.0,1.0,1.0,0.0,'1',0.8640267848968506,0.8640267848968506,0.0,87.0
MatchFaces,stimuli/MatchFaces.bmp,stimuli/EmptyFace.bmp,stimuli/EmptyFace.bmp,stimuli/EmptyFrame.bmp,stimuli/EmptyFrame.bmp,Null,None,None,3,1,1.0,368.54852294921875,368.54852294921875,0.0,372.38385009765625,372.38385009765625,0.0,371.38934326171875,371.38934326171875,0.0,0.0,0.0,0.0,,,,,88.0
Fear,stimuli/34M_FE_O.BMP,stimuli/34M_FE_O.BMP,stimuli/33M_FE_O.BMP,stimuli/EmptyFrame.bmp,stimuli/RedFrame.bmp,1,Fear,Male,3,1,1.0,372.43731689453125,372.43731689453125,0.0,376.40472412109375,376.40472412109375,0.0,375.4241027832031,375.4241027832031,0.0,1.0,1.0,0.0,'1',1.8930878639221191,1.8930878639221191,0.0,89.0
Fear,stimuli/28M_FE_O.BMP,stimuli/28M_FE_O.BMP,stimuli/25M_FE_O.BMP,stimuli/EmptyFrame.bmp,stimuli/RedFrame.bmp,1,Fear,Male,3,1,1.0,376.43170166015625,376.43170166015625,0.0,380.4276428222656,380.4276428222656,0.0,379.43218994140625,379.43218994140625,0.0,1.0,1.0,0.0,'1',0.5640410780906677,0.5640410780906677,0.0,90.0
Fear,stimuli/11F_FE_O.BMP,stimuli/10F_FE_O.BMP,stimuli/11F_FE_O.BMP,stimuli/EmptyFrame.bmp,stimuli/RedFrame.bmp,2,Fear,Female,3,1,1.0,380.45098876953125,380.45098876953125,0.0,384.4461364746094,384.4461364746094,0.0,383.4543762207031,383.4543762207031,0.0,1.0,1.0,0.0,'2',0.5191951990127563,0.5191951990127563,0.0,91.0
Fear,stimuli/27M_FE_O.BMP,stimuli/26M_FE_O.BMP,stimuli/27M_FE_O.BMP,stimuli/EmptyFrame.bmp,stimuli/RedFrame.bmp,2,Fear,Male,3,1,1.0,384.4728088378906,384.4728088378906,0.0,388.46783447265625,388.46783447265625,0.0,387.47882080078125,387.47882080078125,0.0,1.0,1.0,0.0,'2',0.5354115962982178,0.5354115962982178,0.0,92.0
Fear,stimuli/11F_FE_O.BMP,stimuli/12F_FE_O.BMP,stimuli/11F_FE_O.BMP,stimuli/EmptyFrame.bmp,stimuli/RedFrame.bmp,2,Fear,Female,3,1,1.0,388.49542236328125,388.49542236328125,0.0,392.4800109863281,392.4800109863281,0.0,391.4983825683594,391.4983825683594,0.0,1.0,1.0,0.0,'2',0.5614393949508667,0.5614393949508667,0.0,93.0
Fear,stimuli/31M_FE_O.BMP,stimuli/31M_FE_O.BMP,stimuli/38M_FE_O.BMP,stimuli/EmptyFrame.bmp,stimuli/RedFrame.bmp,1,Fear,Male,3,1,1.0,392.5208740234375,392.5208740234375,0.0,396.5038146972656,396.5038146972656,0.0,395.5130310058594,395.5130310058594,0.0,1.0,1.0,0.0,'1',0.6012541055679321,0.6012541055679321,0.0,94.0
Fear,stimuli/29M_FE_O.BMP,stimuli/29M_FE_O.BMP,stimuli/24M_FE_O.BMP,stimuli/EmptyFrame.bmp,stimuli/RedFrame.bmp,1,Fear,Male,3,1,1.0,396.5284729003906,396.5284729003906,0.0,400.5250549316406,400.5250549316406,0.0,399.5320739746094,399.5320739746094,0.0,1.0,1.0,0.0,'1',0.5631558895111084,0.5631558895111084,0.0,95.0
Fear,stimuli/25M_FE_O.BMP,stimuli/29M_FE_O.BMP,stimuli/25M_FE_O.BMP,stimuli/EmptyFrame.bmp,stimuli/RedFrame.bmp,2,Fear,Male,3,1,1.0,400.544921875,400.544921875,0.0,404.5508728027344,404.5508728027344,0.0,403.5610656738281,403.5610656738281,0.0,1.0,1.0,0.0,'2',0.8855968713760376,0.8855968713760376,0.0,96.0
Fear,stimuli/15F_FE_O.BMP,stimuli/18F_FE_O.BMP,stimuli/15F_FE_O.BMP,stimuli/EmptyFrame.bmp,stimuli/RedFrame.bmp,2,Fear,Female,3,1,1.0,404.5917053222656,404.5917053222656,0.0,408.56353759765625,408.56353759765625,0.0,407.5863342285156,407.5863342285156,0.0,1.0,1.0,0.0,'2',0.6144540905952454,0.6144540905952454,0.0,97.0
Fear,stimuli/09F_FE_O.BMP,stimuli/09F_FE_O.BMP,stimuli/12F_FE_O.BMP,stimuli/EmptyFrame.bmp,stimuli/RedFrame.bmp,1,Fear,Female,3,1,1.0,408.5889892578125,408.5889892578125,0.0,412.5763854980469,412.5763854980469,0.0,411.5971374511719,411.5971374511719,0.0,1.0,1.0,0.0,'1',0.5868293046951294,0.5868293046951294,0.0,98.0
MatchFaces,stimuli/MatchFaces.bmp,stimuli/EmptyFace.bmp,stimuli/EmptyFace.bmp,stimuli/EmptyFrame.bmp,stimuli/EmptyFrame.bmp,Null,None,None,3,1,1.0,412.72967529296875,412.72967529296875,0.0,416.58062744140625,416.58062744140625,0.0,415.59100341796875,415.59100341796875,0.0,0.0,0.0,0.0,,,,,99.0
Anger,stimuli/23M_AN_O.BMP,stimuli/23M_AN_O.BMP,stimuli/31M_AN_O.BMP,stimuli/EmptyFrame.bmp,stimuli/RedFrame.bmp,1,Anger,Male,3,1,1.0,416.63836669921875,416.63836669921875,0.0,420.6061706542969,420.6061706542969,0.0,419.61846923828125,419.61846923828125,0.0,1.0,1.0,0.0,'1',1.226704478263855,1.226704478263855,0.0,100.0
Anger,stimuli/36M_AN_O.BMP,stimuli/37M_AN_O.BMP,stimuli/36M_AN_O.BMP,stimuli/EmptyFrame.bmp,stimuli/RedFrame.bmp,2,Anger,Male,3,1,1.0,420.6366271972656,420.6366271972656,0.0,424.62164306640625,424.62164306640625,0.0,423.649169921875,423.649169921875,0.0,1.0,1.0,0.0,'2',0.9102990031242371,0.9102990031242371,0.0,101.0
Anger,stimuli/38M_AN_O.BMP,stimuli/39M_AN_O.BMP,stimuli/38M_AN_O.BMP,stimuli/EmptyFrame.bmp,stimuli/RedFrame.bmp,2,Anger,Male,3,1,1.0,424.6517639160156,424.6517639160156,0.0,428.63848876953125,428.63848876953125,0.0,427.64312744140625,427.64312744140625,0.0,1.0,1.0,0.0,'2',0.5480378866195679,0.5480378866195679,0.0,102.0
Anger,stimuli/02f_an_o.bmp,stimuli/18F_AN_O.BMP,stimuli/02f_an_o.bmp,stimuli/EmptyFrame.bmp,stimuli/RedFrame.bmp,2,Anger,Female,3,1,1.0,428.66693115234375,428.66693115234375,0.0,432.6515197753906,432.6515197753906,0.0,431.6639099121094,431.6639099121094,0.0,1.0,1.0,0.0,'2',0.5956149101257324,0.5956149101257324,0.0,103.0
Anger,stimuli/22M_AN_O.BMP,stimuli/32M_AN_O.BMP,stimuli/22M_AN_O.BMP,stimuli/EmptyFrame.bmp,stimuli/RedFrame.bmp,2,Anger,Male,3,1,1.0,432.6810607910156,432.6810607910156,0.0,436.666015625,436.666015625,0.0,435.6774597167969,435.6774597167969,0.0,1.0,1.0,0.0,'2',0.516318678855896,0.516318678855896,0.0,104.0
Anger,stimuli/12F_AN_O.BMP,stimuli/12F_AN_O.BMP,stimuli/13F_AN_O.BMP,stimuli/EmptyFrame.bmp,stimuli/RedFrame.bmp,1,Anger,Female,3,1,1.0,436.68829345703125,436.68829345703125,0.0,440.6811218261719,440.6811218261719,0.0,439.6965026855469,439.6965026855469,0.0,1.0,1.0,0.0,'1',0.5513098835945129,0.5513098835945129,0.0,105.0
Anger,stimuli/05F_AN_O.bmp,stimuli/05F_AN_O.bmp,stimuli/16F_AN_O.BMP,stimuli/EmptyFrame.bmp,stimuli/RedFrame.bmp,1,Anger,Female,3,1,1.0,440.7109375,440.7109375,0.0,444.6909484863281,444.6909484863281,0.0,443.7039794921875,443.7039794921875,0.0,1.0,1.0,0.0,'1',0.697579026222229,0.697579026222229,0.0,106.0
Anger,stimuli/21M_AN_O.BMP,stimuli/21M_AN_O.BMP,stimuli/33M_AN_O.BMP,stimuli/EmptyFrame.bmp,stimuli/RedFrame.bmp,1,Anger,Male,3,1,1.0,444.7287292480469,444.7287292480469,0.0,448.7030334472656,448.7030334472656,0.0,447.72186279296875,447.72186279296875,0.0,1.0,1.0,0.0,'1',0.7639592885971069,0.7639592885971069,0.0,107.0
Anger,stimuli/07F_AN_O.BMP,stimuli/07F_AN_O.BMP,stimuli/14F_AN_O.BMP,stimuli/EmptyFrame.bmp,stimuli/RedFrame.bmp,1,Anger,Female,3,1,1.0,448.7332763671875,448.7332763671875,0.0,452.7226867675781,452.7226867675781,0.0,451.7325439453125,451.7325439453125,0.0,1.0,1.0,0.0,'1',0.85572749376297,0.85572749376297,0.0,108.0
Anger,stimuli/10F_AN_O.BMP,stimuli/10F_AN_O.BMP,stimuli/11F_AN_O.BMP,stimuli/EmptyFrame.bmp,stimuli/RedFrame.bmp,1,Anger,Female,3,1,1.0,452.74932861328125,452.74932861328125,0.0,456.73919677734375,456.73919677734375,0.0,455.7463073730469,455.7463073730469,0.0,1.0,1.0,0.0,'1',0.6343448162078857,0.6343448162078857,0.0,109.0

extraInfo
participant,sub027
session,002
date,2025_Aug_13_0853
expName,HaririTask_Ver2
psychopyVersion,3.0.1
frameRate,None
