TrialType,Top,Left,Right,EmptyFrame,SelectedFrame,Correct,Emotion,Gender,TrialLength,FixationLength,n,GCFaceStartTime_mean,GCFaceStartTime_raw,GCFaceStartTime_std,GCPostFaceFixationEndTime_mean,GCPostFaceFixationEndTime_raw,GCPostFaceFixationEndTime_std,GCPostFaceFixationStartTime_mean,GCPostFaceFixationStartTime_raw,GCPostFaceFixationStartTime_std,key_resp_trial.corr_mean,key_resp_trial.corr_raw,key_resp_trial.corr_std,key_resp_trial.keys_raw,key_resp_trial.rt_mean,key_resp_trial.rt_raw,key_resp_trial.rt_std,order
MatchFaces,stimuli/MatchFaces.bmp,stimuli/EmptyFace.bmp,stimuli/EmptyFace.bmp,stimuli/EmptyFrame.bmp,stimuli/EmptyFrame.bmp,Null,None,None,3,1,1.0,15.271961212158203,15.271961212158203,0.0,19.06309700012207,19.06309700012207,0.0,18.067293167114258,18.067293167114258,0.0,0.0,0.0,0.0,,,,,0.0
Fear,stimuli/23M_FE_O.BMP,stimuli/23M_FE_O.BMP,stimuli/24M_FE_O.BMP,stimuli/EmptyFrame.bmp,stimuli/RedFrame.bmp,1,Fear,Male,3,1,1.0,19.234479904174805,19.234479904174805,0.0,23.06609535217285,23.06609535217285,0.0,22.080331802368164,22.080331802368164,0.0,0.0,0.0,0.0,,,,,1.0
Fear,stimuli/19F_FE_O.BMP,stimuli/18F_FE_O.BMP,stimuli/19F_FE_O.BMP,stimuli/EmptyFrame.bmp,stimuli/RedFrame.bmp,2,Fear,Female,3,1,1.0,23.099912643432617,23.099912643432617,0.0,27.0825252532959,27.0825252532959,0.0,26.09799575805664,26.09799575805664,0.0,1.0,1.0,0.0,'2',1.5304152965545654,1.5304152965545654,0.0,2.0
Fear,stimuli/17F_FE_O.BMP,stimuli/17F_FE_O.BMP,stimuli/16F_FE_O.BMP,stimuli/EmptyFrame.bmp,stimuli/RedFrame.bmp,1,Fear,Female,3,1,1.0,27.115324020385742,27.115324020385742,0.0,31.09516143798828,31.09516143798828,0.0,30.115249633789062,30.115249633789062,0.0,1.0,1.0,0.0,'1',1.0777267217636108,1.0777267217636108,0.0,3.0
Fear,stimuli/21M_FE_O.BMP,stimuli/21M_FE_O.BMP,stimuli/22M_FE_O.BMP,stimuli/EmptyFrame.bmp,stimuli/RedFrame.bmp,1,Fear,Male,3,1,1.0,31.12322425842285,31.12322425842285,0.0,35.10444259643555,35.10444259643555,0.0,34.124847412109375,34.124847412109375,0.0,1.0,1.0,0.0,'1',1.179197072982788,1.179197072982788,0.0,4.0
Fear,stimuli/09F_FE_O.BMP,stimuli/07F_FE_O.BMP,stimuli/09F_FE_O.BMP,stimuli/EmptyFrame.bmp,stimuli/RedFrame.bmp,2,Fear,Female,3,1,1.0,35.13191604614258,35.13191604614258,0.0,39.11874008178711,39.11874008178711,0.0,38.12773895263672,38.12773895263672,0.0,1.0,1.0,0.0,'2',1.3348568677902222,1.3348568677902222,0.0,5.0
Fear,stimuli/08F_FE_O.BMP,stimuli/13F_FE_O.BMP,stimuli/08F_FE_O.BMP,stimuli/EmptyFrame.bmp,stimuli/RedFrame.bmp,2,Fear,Female,3,1,1.0,39.14530563354492,39.14530563354492,0.0,43.134273529052734,43.134273529052734,0.0,42.14175796508789,42.14175796508789,0.0,1.0,1.0,0.0,'2',1.205460786819458,1.205460786819458,0.0,6.0
Fear,stimuli/07F_FE_O.BMP,stimuli/07F_FE_O.BMP,stimuli/14F_FE_O.BMP,stimuli/EmptyFrame.bmp,stimuli/RedFrame.bmp,1,Fear,Female,3,1,1.0,43.160343170166016,43.160343170166016,0.0,47.14933776855469,47.14933776855469,0.0,46.159027099609375,46.159027099609375,0.0,1.0,1.0,0.0,'1',0.9221503734588623,0.9221503734588623,0.0,7.0
Fear,stimuli/26M_FE_O.BMP,stimuli/26M_FE_O.BMP,stimuli/28M_FE_O.BMP,stimuli/EmptyFrame.bmp,stimuli/RedFrame.bmp,1,Fear,Male,3,1,1.0,47.177040100097656,47.177040100097656,0.0,51.165096282958984,51.165096282958984,0.0,50.16810607910156,50.16810607910156,0.0,1.0,1.0,0.0,'1',0.9094352126121521,0.9094352126121521,0.0,8.0
Fear,stimuli/10F_FE_O.BMP,stimuli/11F_FE_O.BMP,stimuli/10F_FE_O.BMP,stimuli/EmptyFrame.bmp,stimuli/RedFrame.bmp,2,Fear,Female,3,1,1.0,51.20880126953125,51.20880126953125,0.0,55.17734909057617,55.17734909057617,0.0,54.20140075683594,54.20140075683594,0.0,1.0,1.0,0.0,'2',0.856410801410675,0.856410801410675,0.0,9.0
Fear,stimuli/29M_FE_O.BMP,stimuli/30M_FE_O.BMP,stimuli/29M_FE_O.BMP,stimuli/EmptyFrame.bmp,stimuli/RedFrame.bmp,2,Fear,Male,3,1,1.0,55.206199645996094,55.206199645996094,0.0,59.19584274291992,59.19584274291992,0.0,58.20327377319336,58.20327377319336,0.0,1.0,1.0,0.0,'2',1.0272324085235596,1.0272324085235596,0.0,10.0
MatchFaces,stimuli/MatchFaces.bmp,stimuli/EmptyFace.bmp,stimuli/EmptyFace.bmp,stimuli/EmptyFrame.bmp,stimuli/EmptyFrame.bmp,Null,None,None,3,1,1.0,59.361785888671875,59.361785888671875,0.0,63.201995849609375,63.201995849609375,0.0,62.21342849731445,62.21342849731445,0.0,0.0,0.0,0.0,,,,,11.0
Neutral,stimuli/07F_NE_C.BMP,stimuli/07F_NE_C.BMP,stimuli/14F_NE_C.BMP,stimuli/EmptyFrame.bmp,stimuli/RedFrame.bmp,1,Neutral,Female,3,1,1.0,63.25303268432617,63.25303268432617,0.0,67.22129821777344,67.22129821777344,0.0,66.22296905517578,66.22296905517578,0.0,1.0,1.0,0.0,'1',0.8222122192382812,0.8222122192382812,0.0,12.0
Neutral,stimuli/25M_NE_C.BMP,stimuli/29M_NE_C.BMP,stimuli/25M_NE_C.BMP,stimuli/EmptyFrame.bmp,stimuli/RedFrame.bmp,2,Neutral,Male,3,1,1.0,67.25318908691406,67.25318908691406,0.0,71.24142456054688,71.24142456054688,0.0,70.24652862548828,70.24652862548828,0.0,1.0,1.0,0.0,'2',0.838861882686615,0.838861882686615,0.0,13.0
Neutral,stimuli/26M_NE_C.BMP,stimuli/26M_NE_C.BMP,stimuli/28M_NE_C.BMP,stimuli/EmptyFrame.bmp,stimuli/RedFrame.bmp,1,Neutral,Male,3,1,1.0,71.26958465576172,71.26958465576172,0.0,75.26248168945312,75.26248168945312,0.0,74.2724609375,74.2724609375,0.0,1.0,1.0,0.0,'1',0.7766216993331909,0.7766216993331909,0.0,14.0
Neutral,stimuli/08F_NE_C.BMP,stimuli/13F_NE_C.BMP,stimuli/08F_NE_C.BMP,stimuli/EmptyFrame.bmp,stimuli/RedFrame.bmp,2,Neutral,Female,3,1,1.0,75.29147338867188,75.29147338867188,0.0,79.27860260009766,79.27860260009766,0.0,78.295166015625,78.295166015625,0.0,1.0,1.0,0.0,'2',0.8285703063011169,0.8285703063011169,0.0,15.0
Neutral,stimuli/09F_NE_C.BMP,stimuli/09F_NE_C.BMP,stimuli/12F_NE_C.BMP,stimuli/EmptyFrame.bmp,stimuli/RedFrame.bmp,1,Neutral,Female,3,1,1.0,79.30577087402344,79.30577087402344,0.0,83.28880310058594,83.28880310058594,0.0,82.30904388427734,82.30904388427734,0.0,1.0,1.0,0.0,'1',0.6526219844818115,0.6526219844818115,0.0,16.0
Neutral,stimuli/27M_NE_C.BMP,stimuli/26M_NE_C.BMP,stimuli/27M_NE_C.BMP,stimuli/EmptyFrame.bmp,stimuli/RedFrame.bmp,2,Neutral,Male,3,1,1.0,83.31393432617188,83.31393432617188,0.0,87.30313110351562,87.30313110351562,0.0,86.3199234008789,86.3199234008789,0.0,1.0,1.0,0.0,'2',0.9872180819511414,0.9872180819511414,0.0,17.0
Neutral,stimuli/28M_NE_C.BMP,stimuli/28M_NE_C.BMP,stimuli/25M_NE_C.BMP,stimuli/EmptyFrame.bmp,stimuli/RedFrame.bmp,1,Neutral,Male,3,1,1.0,87.33148193359375,87.33148193359375,0.0,91.3124771118164,91.3124771118164,0.0,90.33182525634766,90.33182525634766,0.0,1.0,1.0,0.0,'1',0.8410353064537048,0.8410353064537048,0.0,18.0
Neutral,stimuli/10F_NE_C.BMP,stimuli/11F_NE_C.BMP,stimuli/10F_NE_C.BMP,stimuli/EmptyFrame.bmp,stimuli/RedFrame.bmp,2,Neutral,Female,3,1,1.0,91.34228515625,91.34228515625,0.0,95.33155059814453,95.33155059814453,0.0,94.33399200439453,94.33399200439453,0.0,1.0,1.0,0.0,'2',0.6224508881568909,0.6224508881568909,0.0,19.0
Neutral,stimuli/29M_NE_C.BMP,stimuli/29M_NE_C.BMP,stimuli/24M_NE_C.BMP,stimuli/EmptyFrame.bmp,stimuli/RedFrame.bmp,1,Neutral,Male,3,1,1.0,95.3585433959961,95.3585433959961,0.0,99.34268951416016,99.34268951416016,0.0,98.36043548583984,98.36043548583984,0.0,1.0,1.0,0.0,'1',0.605149507522583,0.605149507522583,0.0,20.0
Neutral,stimuli/11F_NE_C.BMP,stimuli/10F_NE_C.BMP,stimuli/11F_NE_C.BMP,stimuli/EmptyFrame.bmp,stimuli/RedFrame.bmp,2,Neutral,Female,3,1,1.0,99.36320495605469,99.36320495605469,0.0,103.35835266113281,103.35835266113281,0.0,102.37158203125,102.37158203125,0.0,1.0,1.0,0.0,'2',1.2977489233016968,1.2977489233016968,0.0,21.0
MatchShape,stimuli/MatchShapes.bmp,stimuli/EmptyFace.bmp,stimuli/EmptyFace.bmp,stimuli/EmptyFrame.bmp,stimuli/EmptyFrame.bmp,Null,None,None,3,1,1.0,103.39002990722656,103.39002990722656,0.0,107.3602294921875,107.3602294921875,0.0,106.3674545288086,106.3674545288086,0.0,0.0,0.0,0.0,,,,,22.0
Shape,stimuli/circle.bmp,stimuli/vertical.bmp,stimuli/circle.bmp,stimuli/EmptyFrame.bmp,stimuli/RedFrame.bmp,2,Shape,None,3,1,1.0,107.39452362060547,107.39452362060547,0.0,111.37277221679688,111.37277221679688,0.0,110.38423156738281,110.38423156738281,0.0,1.0,1.0,0.0,'2',0.9785361289978027,0.9785361289978027,0.0,23.0
Shape,stimuli/horizontal.bmp,stimuli/circle.bmp,stimuli/horizontal.bmp,stimuli/EmptyFrame.bmp,stimuli/RedFrame.bmp,2,Shape,None,3,1,1.0,111.39830780029297,111.39830780029297,0.0,115.3888168334961,115.3888168334961,0.0,114.39627838134766,114.39627838134766,0.0,1.0,1.0,0.0,'2',0.8493559956550598,0.8493559956550598,0.0,24.0
Shape,stimuli/circle.bmp,stimuli/vertical.bmp,stimuli/circle.bmp,stimuli/EmptyFrame.bmp,stimuli/RedFrame.bmp,2,Shape,None,3,1,1.0,115.41187286376953,115.41187286376953,0.0,119.40274047851562,119.40274047851562,0.0,118.42483520507812,118.42483520507812,0.0,1.0,1.0,0.0,'2',0.9222007989883423,0.9222007989883423,0.0,25.0
Shape,stimuli/vertical.bmp,stimuli/circle.bmp,stimuli/vertical.bmp,stimuli/EmptyFrame.bmp,stimuli/RedFrame.bmp,2,Shape,None,3,1,1.0,119.42887115478516,119.42887115478516,0.0,123.41897583007812,123.41897583007812,0.0,122.42501068115234,122.42501068115234,0.0,1.0,1.0,0.0,'2',0.7318757176399231,0.7318757176399231,0.0,26.0
Shape,stimuli/vertical.bmp,stimuli/horizontal.bmp,stimuli/vertical.bmp,stimuli/EmptyFrame.bmp,stimuli/RedFrame.bmp,2,Shape,None,3,1,1.0,123.44424438476562,123.44424438476562,0.0,127.43981170654297,127.43981170654297,0.0,126.44959259033203,126.44959259033203,0.0,1.0,1.0,0.0,'2',0.6980320811271667,0.6980320811271667,0.0,27.0
Shape,stimuli/horizontal.bmp,stimuli/horizontal.bmp,stimuli/vertical.bmp,stimuli/EmptyFrame.bmp,stimuli/RedFrame.bmp,1,Shape,None,3,1,1.0,127.46292114257812,127.46292114257812,0.0,131.45376586914062,131.45376586914062,0.0,130.47116088867188,130.47116088867188,0.0,1.0,1.0,0.0,'1',1.2728550434112549,1.2728550434112549,0.0,28.0
Shape,stimuli/horizontal.bmp,stimuli/circle.bmp,stimuli/horizontal.bmp,stimuli/EmptyFrame.bmp,stimuli/RedFrame.bmp,2,Shape,None,3,1,1.0,131.4744873046875,131.4744873046875,0.0,135.47256469726562,135.47256469726562,0.0,134.4858856201172,134.4858856201172,0.0,1.0,1.0,0.0,'2',0.9879795908927917,0.9879795908927917,0.0,29.0
Shape,stimuli/circle.bmp,stimuli/circle.bmp,stimuli/vertical.bmp,stimuli/EmptyFrame.bmp,stimuli/RedFrame.bmp,1,Shape,None,3,1,1.0,135.49855041503906,135.49855041503906,0.0,139.48606872558594,139.48606872558594,0.0,138.49488830566406,138.49488830566406,0.0,1.0,1.0,0.0,'1',0.7814648151397705,0.7814648151397705,0.0,30.0
Shape,stimuli/vertical.bmp,stimuli/horizontal.bmp,stimuli/vertical.bmp,stimuli/EmptyFrame.bmp,stimuli/RedFrame.bmp,2,Shape,None,3,1,1.0,139.50924682617188,139.50924682617188,0.0,143.50355529785156,143.50355529785156,0.0,142.51589965820312,142.51589965820312,0.0,1.0,1.0,0.0,'2',0.8634653091430664,0.8634653091430664,0.0,31.0
Shape,stimuli/vertical.bmp,stimuli/vertical.bmp,stimuli/horizontal.bmp,stimuli/EmptyFrame.bmp,stimuli/RedFrame.bmp,1,Shape,None,3,1,1.0,143.5280303955078,143.5280303955078,0.0,147.5179443359375,147.5179443359375,0.0,146.538330078125,146.538330078125,0.0,1.0,1.0,0.0,'1',0.8998379707336426,0.8998379707336426,0.0,32.0
MatchFaces,stimuli/MatchFaces.bmp,stimuli/EmptyFace.bmp,stimuli/EmptyFace.bmp,stimuli/EmptyFrame.bmp,stimuli/EmptyFrame.bmp,Null,None,None,3,1,1.0,147.665771484375,147.665771484375,0.0,151.53099060058594,151.53099060058594,0.0,150.52821350097656,150.52821350097656,0.0,0.0,0.0,0.0,,,,,33.0
Anger,stimuli/20M_AN_O.BMP,stimuli/34M_AN_O.BMP,stimuli/20M_AN_O.BMP,stimuli/EmptyFrame.bmp,stimuli/RedFrame.bmp,2,Anger,Male,3,1,1.0,151.58645629882812,151.58645629882812,0.0,155.54554748535156,155.54554748535156,0.0,154.55853271484375,154.55853271484375,0.0,1.0,1.0,0.0,'2',1.3244445323944092,1.3244445323944092,0.0,34.0
Anger,stimuli/01F_AN_O.bmp,stimuli/19F_AN_O.BMP,stimuli/01F_AN_O.bmp,stimuli/EmptyFrame.bmp,stimuli/RedFrame.bmp,2,Anger,Female,3,1,1.0,155.5740203857422,155.5740203857422,0.0,159.55984497070312,159.55984497070312,0.0,158.5707550048828,158.5707550048828,0.0,1.0,1.0,0.0,'2',0.6927719116210938,0.6927719116210938,0.0,35.0
Anger,stimuli/06F_AN_O.bmp,stimuli/15F_AN_O.BMP,stimuli/06F_AN_O.bmp,stimuli/EmptyFrame.bmp,stimuli/RedFrame.bmp,2,Anger,Female,3,1,1.0,159.58775329589844,159.58775329589844,0.0,163.576171875,163.576171875,0.0,162.59341430664062,162.59341430664062,0.0,1.0,1.0,0.0,'2',0.7525237202644348,0.7525237202644348,0.0,36.0
Anger,stimuli/42M_AN_O.BMP,stimuli/42M_AN_O.BMP,stimuli/43M_AN_O.BMP,stimuli/EmptyFrame.bmp,stimuli/RedFrame.bmp,1,Anger,Male,3,1,1.0,163.60479736328125,163.60479736328125,0.0,167.5992889404297,167.5992889404297,0.0,166.61587524414062,166.61587524414062,0.0,1.0,1.0,0.0,'1',0.849526584148407,0.849526584148407,0.0,37.0
Anger,stimuli/40M_AN_O.BMP,stimuli/41M_AN_O.BMP,stimuli/40M_AN_O.BMP,stimuli/EmptyFrame.bmp,stimuli/RedFrame.bmp,2,Anger,Male,3,1,1.0,167.6293182373047,167.6293182373047,0.0,171.6126708984375,171.6126708984375,0.0,170.62306213378906,170.62306213378906,0.0,1.0,1.0,0.0,'2',1.0192761421203613,1.0192761421203613,0.0,38.0
Anger,stimuli/08F_AN_O.BMP,stimuli/08F_AN_O.BMP,stimuli/13F_AN_O.BMP,stimuli/EmptyFrame.bmp,stimuli/RedFrame.bmp,1,Anger,Female,3,1,1.0,171.6391143798828,171.6391143798828,0.0,175.6254119873047,175.6254119873047,0.0,174.63568115234375,174.63568115234375,0.0,1.0,1.0,0.0,'1',0.8585274815559387,0.8585274815559387,0.0,39.0
Anger,stimuli/09F_AN_O.BMP,stimuli/12F_AN_O.BMP,stimuli/09F_AN_O.BMP,stimuli/EmptyFrame.bmp,stimuli/RedFrame.bmp,2,Anger,Female,3,1,1.0,175.65530395507812,175.65530395507812,0.0,179.6473388671875,179.6473388671875,0.0,178.6606903076172,178.6606903076172,0.0,1.0,1.0,0.0,'2',0.7557032108306885,0.7557032108306885,0.0,40.0
Anger,stimuli/34M_AN_O.BMP,stimuli/35M_AN_O.BMP,stimuli/34M_AN_O.BMP,stimuli/EmptyFrame.bmp,stimuli/RedFrame.bmp,2,Anger,Male,3,1,1.0,179.6756134033203,179.6756134033203,0.0,183.66177368164062,183.66177368164062,0.0,182.6735382080078,182.6735382080078,0.0,1.0,1.0,0.0,'2',0.7103497982025146,0.7103497982025146,0.0,41.0
Anger,stimuli/24M_AN_O.BMP,stimuli/24M_AN_O.BMP,stimuli/30M_AN_O.BMP,stimuli/EmptyFrame.bmp,stimuli/RedFrame.bmp,1,Anger,Male,3,1,1.0,183.6898193359375,183.6898193359375,0.0,187.67987060546875,187.67987060546875,0.0,186.69366455078125,186.69366455078125,0.0,1.0,1.0,0.0,'1',0.8240004181861877,0.8240004181861877,0.0,42.0
Anger,stimuli/03F_AN_O.bmp,stimuli/03F_AN_O.bmp,stimuli/17F_AN_O.BMP,stimuli/EmptyFrame.bmp,stimuli/RedFrame.bmp,1,Anger,Female,3,1,1.0,187.71258544921875,187.71258544921875,0.0,191.70248413085938,191.70248413085938,0.0,190.70411682128906,190.70411682128906,0.0,1.0,1.0,0.0,'1',1.0008262395858765,1.0008262395858765,0.0,43.0
MatchFaces,stimuli/MatchFaces.bmp,stimuli/EmptyFace.bmp,stimuli/EmptyFace.bmp,stimuli/EmptyFrame.bmp,stimuli/EmptyFrame.bmp,Null,None,None,3,1,1.0,191.9088592529297,191.9088592529297,0.0,195.71224975585938,195.71224975585938,0.0,194.7173614501953,194.7173614501953,0.0,0.0,0.0,0.0,,,,,44.0
Happy,stimuli/06F_HA_O.bmp,stimuli/07F_HA_O.BMP,stimuli/06F_HA_O.bmp,stimuli/EmptyFrame.bmp,stimuli/RedFrame.bmp,2,Happy,Female,3,1,1.0,195.7703094482422,195.7703094482422,0.0,199.73593139648438,199.73593139648438,0.0,198.74884033203125,198.74884033203125,0.0,1.0,1.0,0.0,'2',0.8585720062255859,0.8585720062255859,0.0,45.0
Happy,stimuli/13F_HA_O.BMP,stimuli/13F_HA_O.BMP,stimuli/12F_HA_O.BMP,stimuli/EmptyFrame.bmp,stimuli/RedFrame.bmp,1,Happy,Female,3,1,1.0,199.76454162597656,199.76454162597656,0.0,203.75494384765625,203.75494384765625,0.0,202.77110290527344,202.77110290527344,0.0,1.0,1.0,0.0,'1',0.9648315906524658,0.9648315906524658,0.0,46.0
Happy,stimuli/41M_HA_O.BMP,stimuli/41M_HA_O.BMP,stimuli/40M_HA_O.BMP,stimuli/EmptyFrame.bmp,stimuli/RedFrame.bmp,1,Happy,Male,3,1,1.0,203.7833709716797,203.7833709716797,0.0,207.768798828125,207.768798828125,0.0,206.77777099609375,206.77777099609375,0.0,1.0,1.0,0.0,'1',0.7532021999359131,0.7532021999359131,0.0,47.0
Happy,stimuli/03F_HA_O.bmp,stimuli/05F_HA_O.bmp,stimuli/03F_HA_O.bmp,stimuli/EmptyFrame.bmp,stimuli/RedFrame.bmp,2,Happy,Female,3,1,1.0,207.7998809814453,207.7998809814453,0.0,211.7887420654297,211.7887420654297,0.0,210.7939453125,210.7939453125,0.0,1.0,1.0,0.0,'2',1.2103166580200195,1.2103166580200195,0.0,48.0
Happy,stimuli/24M_HA_O.BMP,stimuli/24M_HA_O.BMP,stimuli/25M_HA_O.BMP,stimuli/EmptyFrame.bmp,stimuli/RedFrame.bmp,1,Happy,Male,3,1,1.0,211.81640625,211.81640625,0.0,215.80810546875,215.80810546875,0.0,214.82012939453125,214.82012939453125,0.0,1.0,1.0,0.0,'1',0.869778573513031,0.869778573513031,0.0,49.0
Happy,stimuli/19F_HA_O.BMP,stimuli/19F_HA_O.BMP,stimuli/18F_HA_O.BMP,stimuli/EmptyFrame.bmp,stimuli/RedFrame.bmp,1,Happy,Female,3,1,1.0,215.83702087402344,215.83702087402344,0.0,219.821533203125,219.821533203125,0.0,218.8283233642578,218.8283233642578,0.0,1.0,1.0,0.0,'1',0.6490917801856995,0.6490917801856995,0.0,50.0
Happy,stimuli/01F_HA_O.bmp,stimuli/01F_HA_O.bmp,stimuli/02F_HA_O.bmp,stimuli/EmptyFrame.bmp,stimuli/RedFrame.bmp,1,Happy,Female,3,1,1.0,219.85107421875,219.85107421875,0.0,223.84059143066406,223.84059143066406,0.0,222.84556579589844,222.84556579589844,0.0,1.0,1.0,0.0,'1',0.6411396265029907,0.6411396265029907,0.0,51.0
Happy,stimuli/22M_HA_O.BMP,stimuli/23M_HA_O.BMP,stimuli/22M_HA_O.BMP,stimuli/EmptyFrame.bmp,stimuli/RedFrame.bmp,2,Happy,Male,3,1,1.0,223.86785888671875,223.86785888671875,0.0,227.85018920898438,227.85018920898438,0.0,226.86468505859375,226.86468505859375,0.0,1.0,1.0,0.0,'2',0.7568007111549377,0.7568007111549377,0.0,52.0
Happy,stimuli/35M_HA_O.BMP,stimuli/34M_HA_O.BMP,stimuli/35M_HA_O.BMP,stimuli/EmptyFrame.bmp,stimuli/RedFrame.bmp,2,Happy,Male,3,1,1.0,227.8778839111328,227.8778839111328,0.0,231.85867309570312,231.85867309570312,0.0,230.87396240234375,230.87396240234375,0.0,1.0,1.0,0.0,'2',0.7431511282920837,0.7431511282920837,0.0,53.0
Happy,stimuli/39M_HA_O.BMP,stimuli/38M_HA_O.BMP,stimuli/39M_HA_O.BMP,stimuli/EmptyFrame.bmp,stimuli/RedFrame.bmp,2,Happy,Male,3,1,1.0,231.8870849609375,231.8870849609375,0.0,235.87635803222656,235.87635803222656,0.0,234.9003143310547,234.9003143310547,0.0,1.0,1.0,0.0,'2',0.8295534253120422,0.8295534253120422,0.0,54.0
Match Shape,stimuli/MatchShapes.bmp,stimuli/EmptyFace.bmp,stimuli/EmptyFace.bmp,stimuli/EmptyFrame.bmp,stimuli/EmptyFrame.bmp,Null,None,None,3,1,1.0,235.90322875976562,235.90322875976562,0.0,239.87850952148438,239.87850952148438,0.0,238.89471435546875,238.89471435546875,0.0,0.0,0.0,0.0,,,,,55.0
Shape,stimuli/horizontal.bmp,stimuli/horizontal.bmp,stimuli/vertical.bmp,stimuli/EmptyFrame.bmp,stimuli/RedFrame.bmp,1,Shape,None,3,1,1.0,239.908447265625,239.908447265625,0.0,243.89956665039062,243.89956665039062,0.0,242.9156036376953,242.9156036376953,0.0,1.0,1.0,0.0,'1',0.7741159796714783,0.7741159796714783,0.0,56.0
Shape,stimuli/horizontal.bmp,stimuli/horizontal.bmp,stimuli/circle.bmp,stimuli/EmptyFrame.bmp,stimuli/RedFrame.bmp,1,Shape,None,3,1,1.0,243.925537109375,243.925537109375,0.0,247.91883850097656,247.91883850097656,0.0,246.92440795898438,246.92440795898438,0.0,1.0,1.0,0.0,'1',0.8863480091094971,0.8863480091094971,0.0,57.0
Shape,stimuli/circle.bmp,stimuli/vertical.bmp,stimuli/circle.bmp,stimuli/EmptyFrame.bmp,stimuli/RedFrame.bmp,2,Shape,None,3,1,1.0,247.94186401367188,247.94186401367188,0.0,251.9319305419922,251.9319305419922,0.0,250.94383239746094,250.94383239746094,0.0,1.0,1.0,0.0,'2',0.7120941877365112,0.7120941877365112,0.0,58.0
Shape,stimuli/vertical.bmp,stimuli/vertical.bmp,stimuli/circle.bmp,stimuli/EmptyFrame.bmp,stimuli/RedFrame.bmp,1,Shape,None,3,1,1.0,251.95799255371094,251.95799255371094,0.0,255.95372009277344,255.95372009277344,0.0,254.96034240722656,254.96034240722656,0.0,1.0,1.0,0.0,'1',1.1271556615829468,1.1271556615829468,0.0,59.0
Shape,stimuli/horizontal.bmp,stimuli/horizontal.bmp,stimuli/circle.bmp,stimuli/EmptyFrame.bmp,stimuli/RedFrame.bmp,1,Shape,None,3,1,1.0,255.97787475585938,255.97787475585938,0.0,259.96868896484375,259.96868896484375,0.0,258.9789123535156,258.9789123535156,0.0,1.0,1.0,0.0,'1',0.8082975745201111,0.8082975745201111,0.0,60.0
Shape,stimuli/vertical.bmp,stimuli/vertical.bmp,stimuli/circle.bmp,stimuli/EmptyFrame.bmp,stimuli/RedFrame.bmp,1,Shape,None,3,1,1.0,259.99468994140625,259.99468994140625,0.0,263.9873046875,263.9873046875,0.0,263.0008850097656,263.0008850097656,0.0,1.0,1.0,0.0,'1',0.7374982833862305,0.7374982833862305,0.0,61.0
Shape,stimuli/horizontal.bmp,stimuli/circle.bmp,stimuli/horizontal.bmp,stimuli/EmptyFrame.bmp,stimuli/RedFrame.bmp,2,Shape,None,3,1,1.0,264.0112609863281,264.0112609863281,0.0,268.0012512207031,268.0012512207031,0.0,267.0116882324219,267.0116882324219,0.0,1.0,1.0,0.0,'2',0.7688841223716736,0.7688841223716736,0.0,62.0
Shape,stimuli/circle.bmp,stimuli/circle.bmp,stimuli/horizontal.bmp,stimuli/EmptyFrame.bmp,stimuli/RedFrame.bmp,1,Shape,None,3,1,1.0,268.0240173339844,268.0240173339844,0.0,272.0124206542969,272.0124206542969,0.0,271.0287780761719,271.0287780761719,0.0,1.0,1.0,0.0,'1',0.6731858253479004,0.6731858253479004,0.0,63.0
Shape,stimuli/circle.bmp,stimuli/horizontal.bmp,stimuli/circle.bmp,stimuli/EmptyFrame.bmp,stimuli/RedFrame.bmp,2,Shape,None,3,1,1.0,272.0361022949219,272.0361022949219,0.0,276.0312194824219,276.0312194824219,0.0,275.0376281738281,275.0376281738281,0.0,1.0,1.0,0.0,'2',0.7706590294837952,0.7706590294837952,0.0,64.0
Shape,stimuli/vertical.bmp,stimuli/vertical.bmp,stimuli/horizontal.bmp,stimuli/EmptyFrame.bmp,stimuli/RedFrame.bmp,1,Shape,None,3,1,1.0,276.0561828613281,276.0561828613281,0.0,280.0509338378906,280.0509338378906,0.0,279.05828857421875,279.05828857421875,0.0,1.0,1.0,0.0,'1',0.8091337084770203,0.8091337084770203,0.0,65.0
MatchFaces,stimuli/MatchFaces.bmp,stimuli/EmptyFace.bmp,stimuli/EmptyFace.bmp,stimuli/EmptyFrame.bmp,stimuli/EmptyFrame.bmp,Null,None,None,3,1,1.0,280.22943115234375,280.22943115234375,0.0,284.0556335449219,284.0556335449219,0.0,283.060791015625,283.060791015625,0.0,0.0,0.0,0.0,,,,,66.0
Neutral,stimuli/20M_NE_C.BMP,stimuli/21M_NE_C.BMP,stimuli/20M_NE_C.BMP,stimuli/EmptyFrame.bmp,stimuli/RedFrame.bmp,2,Neutral,Male,3,1,1.0,284.11444091796875,284.11444091796875,0.0,288.0680236816406,288.0680236816406,0.0,287.07879638671875,287.07879638671875,0.0,1.0,1.0,0.0,'2',1.3479440212249756,1.3479440212249756,0.0,67.0
Neutral,stimuli/01F_NE_C.bmp,stimuli/01F_NE_C.bmp,stimuli/02F_NE_C.bmp,stimuli/EmptyFrame.bmp,stimuli/RedFrame.bmp,1,Neutral,Female,3,1,1.0,288.1038513183594,288.1038513183594,0.0,292.08587646484375,292.08587646484375,0.0,291.1049499511719,291.1049499511719,0.0,1.0,1.0,0.0,'1',0.7406263947486877,0.7406263947486877,0.0,68.0
Neutral,stimuli/22M_NE_C.BMP,stimuli/23M_NE_C.BMP,stimuli/22M_NE_C.BMP,stimuli/EmptyFrame.bmp,stimuli/RedFrame.bmp,2,Neutral,Male,3,1,1.0,292.11834716796875,292.11834716796875,0.0,296.1092834472656,296.1092834472656,0.0,295.1185607910156,295.1185607910156,0.0,1.0,1.0,0.0,'2',1.0406111478805542,1.0406111478805542,0.0,69.0
Neutral,stimuli/24M_NE_C.BMP,stimuli/24M_NE_C.BMP,stimuli/25M_NE_C.BMP,stimuli/EmptyFrame.bmp,stimuli/RedFrame.bmp,1,Neutral,Male,3,1,1.0,296.1333923339844,296.1333923339844,0.0,300.1258850097656,300.1258850097656,0.0,299.14508056640625,299.14508056640625,0.0,1.0,1.0,0.0,'1',0.9769116044044495,0.9769116044044495,0.0,70.0
Neutral,stimuli/03F_NE_C.bmp,stimuli/05F_NE_C.bmp,stimuli/03F_NE_C.bmp,stimuli/EmptyFrame.bmp,stimuli/RedFrame.bmp,2,Neutral,Female,3,1,1.0,300.1546936035156,300.1546936035156,0.0,304.13690185546875,304.13690185546875,0.0,303.1510925292969,303.1510925292969,0.0,1.0,1.0,0.0,'2',0.7486971020698547,0.7486971020698547,0.0,71.0
Neutral,stimuli/26M_NE_C.BMP,stimuli/26M_NE_C.BMP,stimuli/27M_NE_C.BMP,stimuli/EmptyFrame.bmp,stimuli/RedFrame.bmp,1,Neutral,Male,3,1,1.0,304.16070556640625,304.16070556640625,0.0,308.1544189453125,308.1544189453125,0.0,307.1656799316406,307.1656799316406,0.0,1.0,1.0,0.0,'1',0.9548414945602417,0.9548414945602417,0.0,72.0
Neutral,stimuli/06F_NE_C.bmp,stimuli/07F_NE_C.BMP,stimuli/06F_NE_C.bmp,stimuli/EmptyFrame.bmp,stimuli/RedFrame.bmp,2,Neutral,Female,3,1,1.0,308.1825866699219,308.1825866699219,0.0,312.17626953125,312.17626953125,0.0,311.186767578125,311.186767578125,0.0,1.0,1.0,0.0,'2',0.8402898907661438,0.8402898907661438,0.0,73.0
Neutral,stimuli/08F_NE_C.BMP,stimuli/08F_NE_C.BMP,stimuli/09F_NE_C.BMP,stimuli/EmptyFrame.bmp,stimuli/RedFrame.bmp,1,Neutral,Female,3,1,1.0,312.2060241699219,312.2060241699219,0.0,316.19012451171875,316.19012451171875,0.0,315.2079162597656,315.2079162597656,0.0,1.0,1.0,0.0,'1',1.0226762294769287,1.0226762294769287,0.0,74.0
Neutral,stimuli/28M_NE_C.BMP,stimuli/29M_NE_C.BMP,stimuli/28M_NE_C.BMP,stimuli/EmptyFrame.bmp,stimuli/RedFrame.bmp,2,Neutral,Male,3,1,1.0,316.2141418457031,316.2141418457031,0.0,320.2032470703125,320.2032470703125,0.0,319.2166748046875,319.2166748046875,0.0,1.0,1.0,0.0,'2',0.7812604904174805,0.7812604904174805,0.0,75.0
Neutral,stimuli/10F_NE_C.BMP,stimuli/10F_NE_C.BMP,stimuli/06F_NE_C.bmp,stimuli/EmptyFrame.bmp,stimuli/RedFrame.bmp,1,Neutral,Female,3,1,1.0,320.2304992675781,320.2304992675781,0.0,324.22467041015625,324.22467041015625,0.0,323.23248291015625,323.23248291015625,0.0,1.0,1.0,0.0,'1',0.912472128868103,0.912472128868103,0.0,76.0
MatchFaces,stimuli/MatchFaces.bmp,stimuli/EmptyFace.bmp,stimuli/EmptyFace.bmp,stimuli/EmptyFrame.bmp,stimuli/EmptyFrame.bmp,Null,None,None,3,1,1.0,324.37908935546875,324.37908935546875,0.0,328.2294616699219,328.2294616699219,0.0,327.2324523925781,327.2324523925781,0.0,0.0,0.0,0.0,,,,,77.0
Happy,stimuli/28M_HA_O.BMP,stimuli/29M_HA_O.BMP,stimuli/28M_HA_O.BMP,stimuli/EmptyFrame.bmp,stimuli/RedFrame.bmp,2,Happy,Male,3,1,1.0,328.28961181640625,328.28961181640625,0.0,332.2412414550781,332.2412414550781,0.0,331.2563171386719,331.2563171386719,0.0,1.0,1.0,0.0,'2',1.2298557758331299,1.2298557758331299,0.0,78.0
Happy,stimuli/10F_HA_O.BMP,stimuli/10F_HA_O.BMP,stimuli/06F_HA_O.bmp,stimuli/EmptyFrame.bmp,stimuli/RedFrame.bmp,1,Happy,Female,3,1,1.0,332.2671203613281,332.2671203613281,0.0,336.2518615722656,336.2518615722656,0.0,335.2646179199219,335.2646179199219,0.0,1.0,1.0,0.0,'1',0.7234334945678711,0.7234334945678711,0.0,79.0
Happy,stimuli/26M_HA_O.BMP,stimuli/26M_HA_O.BMP,stimuli/27M_HA_O.BMP,stimuli/EmptyFrame.bmp,stimuli/RedFrame.bmp,1,Happy,Male,3,1,1.0,336.2779541015625,336.2779541015625,0.0,340.2694396972656,340.2694396972656,0.0,339.2880859375,339.2880859375,0.0,1.0,1.0,0.0,'1',0.7727518081665039,0.7727518081665039,0.0,80.0
Happy,stimuli/20M_HA_O.BMP,stimuli/21M_HA_O.BMP,stimuli/20M_HA_O.BMP,stimuli/EmptyFrame.bmp,stimuli/RedFrame.bmp,2,Happy,Male,3,1,1.0,340.3001708984375,340.3001708984375,0.0,344.2850341796875,344.2850341796875,0.0,343.3031311035156,343.3031311035156,0.0,1.0,1.0,0.0,'2',0.6919487714767456,0.6919487714767456,0.0,81.0
Happy,stimuli/37M_HA_O.BMP,stimuli/37M_HA_O.BMP,stimuli/36M_HA_O.BMP,stimuli/EmptyFrame.bmp,stimuli/RedFrame.bmp,1,Happy,Male,3,1,1.0,344.312744140625,344.312744140625,0.0,348.2999572753906,348.2999572753906,0.0,347.30865478515625,347.30865478515625,0.0,1.0,1.0,0.0,'1',0.8827155828475952,0.8827155828475952,0.0,82.0
Happy,stimuli/43M_HA_O.BMP,stimuli/42M_HA_O.BMP,stimuli/43M_HA_O.BMP,stimuli/EmptyFrame.bmp,stimuli/RedFrame.bmp,2,Happy,Male,3,1,1.0,348.3262023925781,348.3262023925781,0.0,352.3135986328125,352.3135986328125,0.0,351.3352966308594,351.3352966308594,0.0,1.0,1.0,0.0,'2',0.6023144125938416,0.6023144125938416,0.0,83.0
Happy,stimuli/11F_HA_O.BMP,stimuli/10F_HA_O.BMP,stimuli/11F_HA_O.BMP,stimuli/EmptyFrame.bmp,stimuli/RedFrame.bmp,2,Happy,Female,3,1,1.0,352.33770751953125,352.33770751953125,0.0,356.3236999511719,356.3236999511719,0.0,355.33917236328125,355.33917236328125,0.0,1.0,1.0,0.0,'2',0.7598482966423035,0.7598482966423035,0.0,84.0
Happy,stimuli/17F_HA_O.BMP,stimuli/16F_HA_O.BMP,stimuli/17F_HA_O.BMP,stimuli/EmptyFrame.bmp,stimuli/RedFrame.bmp,2,Happy,Female,3,1,1.0,356.3515319824219,356.3515319824219,0.0,360.3382263183594,360.3382263183594,0.0,359.3486633300781,359.3486633300781,0.0,1.0,1.0,0.0,'2',1.7581638097763062,1.7581638097763062,0.0,85.0
Happy,stimuli/15F_HA_O.BMP,stimuli/15F_HA_O.BMP,stimuli/14F_HA_O.BMP,stimuli/EmptyFrame.bmp,stimuli/RedFrame.bmp,1,Happy,Female,3,1,1.0,360.3675537109375,360.3675537109375,0.0,364.3587646484375,364.3587646484375,0.0,363.3634033203125,363.3634033203125,0.0,1.0,1.0,0.0,'1',0.7847886085510254,0.7847886085510254,0.0,86.0
Happy,stimuli/08F_HA_O.BMP,stimuli/08F_HA_O.BMP,stimuli/09F_HA_O.BMP,stimuli/EmptyFrame.bmp,stimuli/RedFrame.bmp,1,Happy,Female,3,1,1.0,364.3873291015625,364.3873291015625,0.0,368.380859375,368.380859375,0.0,367.40234375,367.40234375,0.0,1.0,1.0,0.0,'1',0.8438133001327515,0.8438133001327515,0.0,87.0
MatchFaces,stimuli/MatchFaces.bmp,stimuli/EmptyFace.bmp,stimuli/EmptyFace.bmp,stimuli/EmptyFrame.bmp,stimuli/EmptyFrame.bmp,Null,None,None,3,1,1.0,368.5652160644531,368.5652160644531,0.0,372.38275146484375,372.38275146484375,0.0,371.3984069824219,371.3984069824219,0.0,0.0,0.0,0.0,,,,,88.0
Fear,stimuli/34M_FE_O.BMP,stimuli/34M_FE_O.BMP,stimuli/33M_FE_O.BMP,stimuli/EmptyFrame.bmp,stimuli/RedFrame.bmp,1,Fear,Male,3,1,1.0,372.4399719238281,372.4399719238281,0.0,376.3949279785156,376.3949279785156,0.0,375.4122619628906,375.4122619628906,0.0,1.0,1.0,0.0,'1',1.3782005310058594,1.3782005310058594,0.0,89.0
Fear,stimuli/28M_FE_O.BMP,stimuli/28M_FE_O.BMP,stimuli/25M_FE_O.BMP,stimuli/EmptyFrame.bmp,stimuli/RedFrame.bmp,1,Fear,Male,3,1,1.0,376.4211120605469,376.4211120605469,0.0,380.4114685058594,380.4114685058594,0.0,379.42889404296875,379.42889404296875,0.0,1.0,1.0,0.0,'1',1.175398349761963,1.175398349761963,0.0,90.0
Fear,stimuli/11F_FE_O.BMP,stimuli/10F_FE_O.BMP,stimuli/11F_FE_O.BMP,stimuli/EmptyFrame.bmp,stimuli/RedFrame.bmp,2,Fear,Female,3,1,1.0,380.4328308105469,380.4328308105469,0.0,384.4330139160156,384.4330139160156,0.0,383.4386291503906,383.4386291503906,0.0,1.0,1.0,0.0,'2',0.844488799571991,0.844488799571991,0.0,91.0
Fear,stimuli/27M_FE_O.BMP,stimuli/26M_FE_O.BMP,stimuli/27M_FE_O.BMP,stimuli/EmptyFrame.bmp,stimuli/RedFrame.bmp,2,Fear,Male,3,1,1.0,384.4621276855469,384.4621276855469,0.0,388.4466552734375,388.4466552734375,0.0,387.458251953125,387.458251953125,0.0,1.0,1.0,0.0,'2',0.7290663123130798,0.7290663123130798,0.0,92.0
Fear,stimuli/11F_FE_O.BMP,stimuli/12F_FE_O.BMP,stimuli/11F_FE_O.BMP,stimuli/EmptyFrame.bmp,stimuli/RedFrame.bmp,2,Fear,Female,3,1,1.0,388.47576904296875,388.47576904296875,0.0,392.4605712890625,392.4605712890625,0.0,391.4754943847656,391.4754943847656,0.0,1.0,1.0,0.0,'2',0.6861810088157654,0.6861810088157654,0.0,93.0
Fear,stimuli/31M_FE_O.BMP,stimuli/31M_FE_O.BMP,stimuli/38M_FE_O.BMP,stimuli/EmptyFrame.bmp,stimuli/RedFrame.bmp,1,Fear,Male,3,1,1.0,392.48980712890625,392.48980712890625,0.0,396.4737243652344,396.4737243652344,0.0,395.49273681640625,395.49273681640625,0.0,1.0,1.0,0.0,'1',0.72657310962677,0.72657310962677,0.0,94.0
Fear,stimuli/29M_FE_O.BMP,stimuli/29M_FE_O.BMP,stimuli/24M_FE_O.BMP,stimuli/EmptyFrame.bmp,stimuli/RedFrame.bmp,1,Fear,Male,3,1,1.0,396.49462890625,396.49462890625,0.0,400.4822998046875,400.4822998046875,0.0,399.4937744140625,399.4937744140625,0.0,1.0,1.0,0.0,'1',0.9023869037628174,0.9023869037628174,0.0,95.0
Fear,stimuli/25M_FE_O.BMP,stimuli/29M_FE_O.BMP,stimuli/25M_FE_O.BMP,stimuli/EmptyFrame.bmp,stimuli/RedFrame.bmp,2,Fear,Male,3,1,1.0,400.5055847167969,400.5055847167969,0.0,404.493896484375,404.493896484375,0.0,403.5098571777344,403.5098571777344,0.0,1.0,1.0,0.0,'2',1.4308099746704102,1.4308099746704102,0.0,96.0
Fear,stimuli/15F_FE_O.BMP,stimuli/18F_FE_O.BMP,stimuli/15F_FE_O.BMP,stimuli/EmptyFrame.bmp,stimuli/RedFrame.bmp,2,Fear,Female,3,1,1.0,404.52056884765625,404.52056884765625,0.0,408.5038146972656,408.5038146972656,0.0,407.5204772949219,407.5204772949219,0.0,1.0,1.0,0.0,'2',0.6940534114837646,0.6940534114837646,0.0,97.0
Fear,stimuli/09F_FE_O.BMP,stimuli/09F_FE_O.BMP,stimuli/12F_FE_O.BMP,stimuli/EmptyFrame.bmp,stimuli/RedFrame.bmp,1,Fear,Female,3,1,1.0,408.5257873535156,408.5257873535156,0.0,412.5163269042969,412.5163269042969,0.0,411.5325622558594,411.5325622558594,0.0,1.0,1.0,0.0,'1',0.6762217283248901,0.6762217283248901,0.0,98.0
MatchFaces,stimuli/MatchFaces.bmp,stimuli/EmptyFace.bmp,stimuli/EmptyFace.bmp,stimuli/EmptyFrame.bmp,stimuli/EmptyFrame.bmp,Null,None,None,3,1,1.0,412.6791076660156,412.6791076660156,0.0,416.5282287597656,416.5282287597656,0.0,415.53387451171875,415.53387451171875,0.0,0.0,0.0,0.0,,,,,99.0
Anger,stimuli/23M_AN_O.BMP,stimuli/23M_AN_O.BMP,stimuli/31M_AN_O.BMP,stimuli/EmptyFrame.bmp,stimuli/RedFrame.bmp,1,Anger,Male,3,1,1.0,416.5880126953125,416.5880126953125,0.0,420.5475158691406,420.5475158691406,0.0,419.565673828125,419.565673828125,0.0,1.0,1.0,0.0,'1',0.596337616443634,0.596337616443634,0.0,100.0
Anger,stimuli/36M_AN_O.BMP,stimuli/37M_AN_O.BMP,stimuli/36M_AN_O.BMP,stimuli/EmptyFrame.bmp,stimuli/RedFrame.bmp,2,Anger,Male,3,1,1.0,420.57098388671875,420.57098388671875,0.0,424.56036376953125,424.56036376953125,0.0,423.60186767578125,423.60186767578125,0.0,1.0,1.0,0.0,'2',0.7434393167495728,0.7434393167495728,0.0,101.0
Anger,stimuli/38M_AN_O.BMP,stimuli/39M_AN_O.BMP,stimuli/38M_AN_O.BMP,stimuli/EmptyFrame.bmp,stimuli/RedFrame.bmp,2,Anger,Male,3,1,1.0,424.618896484375,424.618896484375,0.0,428.57879638671875,428.57879638671875,0.0,427.5893859863281,427.5893859863281,0.0,1.0,1.0,0.0,'2',0.8503682017326355,0.8503682017326355,0.0,102.0
Anger,stimuli/02f_an_o.bmp,stimuli/18F_AN_O.BMP,stimuli/02f_an_o.bmp,stimuli/EmptyFrame.bmp,stimuli/RedFrame.bmp,2,Anger,Female,3,1,1.0,428.6090087890625,428.6090087890625,0.0,432.5916442871094,432.5916442871094,0.0,431.6112365722656,431.6112365722656,0.0,1.0,1.0,0.0,'2',0.7378972172737122,0.7378972172737122,0.0,103.0
Anger,stimuli/22M_AN_O.BMP,stimuli/32M_AN_O.BMP,stimuli/22M_AN_O.BMP,stimuli/EmptyFrame.bmp,stimuli/RedFrame.bmp,2,Anger,Male,3,1,1.0,432.62066650390625,432.62066650390625,0.0,436.6123962402344,436.6123962402344,0.0,435.6336364746094,435.6336364746094,0.0,1.0,1.0,0.0,'2',0.6706973910331726,0.6706973910331726,0.0,104.0
Anger,stimuli/12F_AN_O.BMP,stimuli/12F_AN_O.BMP,stimuli/13F_AN_O.BMP,stimuli/EmptyFrame.bmp,stimuli/RedFrame.bmp,1,Anger,Female,3,1,1.0,436.63385009765625,436.63385009765625,0.0,440.6231994628906,440.6231994628906,0.0,439.65081787109375,439.65081787109375,0.0,1.0,1.0,0.0,'1',0.7324023246765137,0.7324023246765137,0.0,105.0
Anger,stimuli/05F_AN_O.bmp,stimuli/05F_AN_O.bmp,stimuli/16F_AN_O.BMP,stimuli/EmptyFrame.bmp,stimuli/RedFrame.bmp,1,Anger,Female,3,1,1.0,440.65216064453125,440.65216064453125,0.0,444.6405334472656,444.6405334472656,0.0,443.654541015625,443.654541015625,0.0,1.0,1.0,0.0,'1',0.7157298922538757,0.7157298922538757,0.0,106.0
Anger,stimuli/21M_AN_O.BMP,stimuli/21M_AN_O.BMP,stimuli/33M_AN_O.BMP,stimuli/EmptyFrame.bmp,stimuli/RedFrame.bmp,1,Anger,Male,3,1,1.0,444.66595458984375,444.66595458984375,0.0,448.6588134765625,448.6588134765625,0.0,447.67620849609375,447.67620849609375,0.0,1.0,1.0,0.0,'1',0.6745826005935669,0.6745826005935669,0.0,107.0
Anger,stimuli/07F_AN_O.BMP,stimuli/07F_AN_O.BMP,stimuli/14F_AN_O.BMP,stimuli/EmptyFrame.bmp,stimuli/RedFrame.bmp,1,Anger,Female,3,1,1.0,448.6914978027344,448.6914978027344,0.0,452.6758117675781,452.6758117675781,0.0,451.687744140625,451.687744140625,0.0,1.0,1.0,0.0,'1',0.722679615020752,0.722679615020752,0.0,108.0
Anger,stimuli/10F_AN_O.BMP,stimuli/10F_AN_O.BMP,stimuli/11F_AN_O.BMP,stimuli/EmptyFrame.bmp,stimuli/RedFrame.bmp,1,Anger,Female,3,1,1.0,452.7061767578125,452.7061767578125,0.0,456.6962890625,456.6962890625,0.0,455.7044982910156,455.7044982910156,0.0,1.0,1.0,0.0,'1',0.8207898736000061,0.8207898736000061,0.0,109.0

extraInfo
participant,sub028
session,001
date,2025_Aug_14_0902
expName,HaririTask_Ver2
psychopyVersion,3.0.1
frameRate,None
