TrialType,Top,Left,Right,EmptyFrame,SelectedFrame,Correct,Emotion,Gender,TrialLength,FixationLength,n,GCFaceStartTime_mean,GCFaceStartTime_raw,GCFaceStartTime_std,GCPostFaceFixationEndTime_mean,GCPostFaceFixationEndTime_raw,GCPostFaceFixationEndTime_std,GCPostFaceFixationStartTime_mean,GCPostFaceFixationStartTime_raw,GCPostFaceFixationStartTime_std,key_resp_trial.corr_mean,key_resp_trial.corr_raw,key_resp_trial.corr_std,key_resp_trial.keys_raw,key_resp_trial.rt_mean,key_resp_trial.rt_raw,key_resp_trial.rt_std,order
MatchFaces,stimuli/MatchFaces.bmp,stimuli/EmptyFace.bmp,stimuli/EmptyFace.bmp,stimuli/EmptyFrame.bmp,stimuli/EmptyFrame.bmp,Null,None,None,3,1,1.0,15.312910079956055,15.312910079956055,0.0,19.047029495239258,19.047029495239258,0.0,18.074838638305664,18.074838638305664,0.0,0.0,0.0,0.0,,,,,0.0
Anger,stimuli/01F_AN_O.bmp,stimuli/19F_AN_O.BMP,stimuli/01F_AN_O.bmp,stimuli/EmptyFrame.bmp,stimuli/RedFrame.bmp,2,Anger,Female,3,1,1.0,19.325191497802734,19.325191497802734,0.0,23.063995361328125,23.063995361328125,0.0,22.086610794067383,22.086610794067383,0.0,1.0,1.0,0.0,'2',0.7482051849365234,0.7482051849365234,0.0,1.0
Anger,stimuli/02f_an_o.bmp,stimuli/18F_AN_O.BMP,stimuli/02f_an_o.bmp,stimuli/EmptyFrame.bmp,stimuli/RedFrame.bmp,2,Anger,Female,3,1,1.0,23.094247817993164,23.094247817993164,0.0,27.08137321472168,27.08137321472168,0.0,26.10903549194336,26.10903549194336,0.0,1.0,1.0,0.0,'2',0.7275061011314392,0.7275061011314392,0.0,2.0
Anger,stimuli/20M_AN_O.BMP,stimuli/34M_AN_O.BMP,stimuli/20M_AN_O.BMP,stimuli/EmptyFrame.bmp,stimuli/RedFrame.bmp,2,Anger,Male,3,1,1.0,27.1154842376709,27.1154842376709,0.0,31.092212677001953,31.092212677001953,0.0,30.108083724975586,30.108083724975586,0.0,1.0,1.0,0.0,'2',0.7563557028770447,0.7563557028770447,0.0,3.0
Anger,stimuli/03F_AN_O.bmp,stimuli/03F_AN_O.bmp,stimuli/17F_AN_O.BMP,stimuli/EmptyFrame.bmp,stimuli/RedFrame.bmp,1,Anger,Female,3,1,1.0,31.12347412109375,31.12347412109375,0.0,35.103599548339844,35.103599548339844,0.0,34.14292526245117,34.14292526245117,0.0,1.0,1.0,0.0,'1',0.7690927982330322,0.7690927982330322,0.0,4.0
Anger,stimuli/21M_AN_O.BMP,stimuli/21M_AN_O.BMP,stimuli/33M_AN_O.BMP,stimuli/EmptyFrame.bmp,stimuli/RedFrame.bmp,1,Anger,Male,3,1,1.0,35.14234161376953,35.14234161376953,0.0,39.12044906616211,39.12044906616211,0.0,38.13227844238281,38.13227844238281,0.0,1.0,1.0,0.0,'1',0.899327278137207,0.899327278137207,0.0,5.0
Anger,stimuli/22M_AN_O.BMP,stimuli/32M_AN_O.BMP,stimuli/22M_AN_O.BMP,stimuli/EmptyFrame.bmp,stimuli/RedFrame.bmp,2,Anger,Male,3,1,1.0,39.144317626953125,39.144317626953125,0.0,43.15388107299805,43.15388107299805,0.0,42.14759063720703,42.14759063720703,0.0,1.0,1.0,0.0,'2',0.7110251784324646,0.7110251784324646,0.0,6.0
Anger,stimuli/23M_AN_O.BMP,stimuli/23M_AN_O.BMP,stimuli/31M_AN_O.BMP,stimuli/EmptyFrame.bmp,stimuli/RedFrame.bmp,1,Anger,Male,3,1,1.0,43.189449310302734,43.189449310302734,0.0,47.175479888916016,47.175479888916016,0.0,46.187557220458984,46.187557220458984,0.0,1.0,1.0,0.0,'1',0.7649332880973816,0.7649332880973816,0.0,7.0
Anger,stimuli/05F_AN_O.bmp,stimuli/05F_AN_O.bmp,stimuli/16F_AN_O.BMP,stimuli/EmptyFrame.bmp,stimuli/RedFrame.bmp,1,Anger,Female,3,1,1.0,47.20207214355469,47.20207214355469,0.0,51.187015533447266,51.187015533447266,0.0,50.2055549621582,50.2055549621582,0.0,1.0,1.0,0.0,'1',0.9078289866447449,0.9078289866447449,0.0,8.0
Anger,stimuli/06F_AN_O.bmp,stimuli/15F_AN_O.BMP,stimuli/06F_AN_O.bmp,stimuli/EmptyFrame.bmp,stimuli/RedFrame.bmp,2,Anger,Female,3,1,1.0,51.21220779418945,51.21220779418945,0.0,55.2014045715332,55.2014045715332,0.0,54.21699523925781,54.21699523925781,0.0,1.0,1.0,0.0,'2',0.75174480676651,0.75174480676651,0.0,9.0
Anger,stimuli/24M_AN_O.BMP,stimuli/24M_AN_O.BMP,stimuli/30M_AN_O.BMP,stimuli/EmptyFrame.bmp,stimuli/RedFrame.bmp,1,Anger,Male,3,1,1.0,55.22832489013672,55.22832489013672,0.0,59.217445373535156,59.217445373535156,0.0,58.2344856262207,58.2344856262207,0.0,1.0,1.0,0.0,'1',0.8999543190002441,0.8999543190002441,0.0,10.0
MatchShape,stimuli/MatchShapes.bmp,stimuli/EmptyFace.bmp,stimuli/EmptyFace.bmp,stimuli/EmptyFrame.bmp,stimuli/EmptyFrame.bmp,Null,None,None,3,1,1.0,59.237754821777344,59.237754821777344,0.0,63.22583770751953,63.22583770751953,0.0,62.22774887084961,62.22774887084961,0.0,0.0,0.0,0.0,,,,,11.0
Shape,stimuli/horizontal.bmp,stimuli/horizontal.bmp,stimuli/circle.bmp,stimuli/EmptyFrame.bmp,stimuli/RedFrame.bmp,1,Shape,None,3,1,1.0,63.25883865356445,63.25883865356445,0.0,67.24076080322266,67.24076080322266,0.0,66.25743103027344,66.25743103027344,0.0,1.0,1.0,0.0,'1',0.6901339888572693,0.6901339888572693,0.0,12.0
Shape,stimuli/vertical.bmp,stimuli/horizontal.bmp,stimuli/vertical.bmp,stimuli/EmptyFrame.bmp,stimuli/RedFrame.bmp,2,Shape,None,3,1,1.0,67.26730346679688,67.26730346679688,0.0,71.266845703125,71.266845703125,0.0,70.26936340332031,70.26936340332031,0.0,1.0,1.0,0.0,'2',0.6878305077552795,0.6878305077552795,0.0,13.0
Shape,stimuli/horizontal.bmp,stimuli/horizontal.bmp,stimuli/vertical.bmp,stimuli/EmptyFrame.bmp,stimuli/RedFrame.bmp,1,Shape,None,3,1,1.0,71.28651428222656,71.28651428222656,0.0,75.28657531738281,75.28657531738281,0.0,74.31529235839844,74.31529235839844,0.0,1.0,1.0,0.0,'1',0.6656926274299622,0.6656926274299622,0.0,14.0
Shape,stimuli/horizontal.bmp,stimuli/circle.bmp,stimuli/horizontal.bmp,stimuli/EmptyFrame.bmp,stimuli/RedFrame.bmp,2,Shape,None,3,1,1.0,75.3105239868164,75.3105239868164,0.0,79.30924987792969,79.30924987792969,0.0,78.31330871582031,78.31330871582031,0.0,1.0,1.0,0.0,'2',0.640325129032135,0.640325129032135,0.0,15.0
Shape,stimuli/circle.bmp,stimuli/circle.bmp,stimuli/vertical.bmp,stimuli/EmptyFrame.bmp,stimuli/RedFrame.bmp,1,Shape,None,3,1,1.0,79.33303833007812,79.33303833007812,0.0,83.32701873779297,83.32701873779297,0.0,82.33483123779297,82.33483123779297,0.0,0.0,0.0,0.0,'2',0.6352338790893555,0.6352338790893555,0.0,16.0
Shape,stimuli/circle.bmp,stimuli/circle.bmp,stimuli/horizontal.bmp,stimuli/EmptyFrame.bmp,stimuli/RedFrame.bmp,1,Shape,None,3,1,1.0,83.34567260742188,83.34567260742188,0.0,87.33999633789062,87.33999633789062,0.0,86.35111236572266,86.35111236572266,0.0,1.0,1.0,0.0,'1',0.6562650799751282,0.6562650799751282,0.0,17.0
Shape,stimuli/vertical.bmp,stimuli/circle.bmp,stimuli/vertical.bmp,stimuli/EmptyFrame.bmp,stimuli/RedFrame.bmp,2,Shape,None,3,1,1.0,87.36135864257812,87.36135864257812,0.0,91.35746765136719,91.35746765136719,0.0,90.36598205566406,90.36598205566406,0.0,1.0,1.0,0.0,'2',0.707243800163269,0.707243800163269,0.0,18.0
Shape,stimuli/circle.bmp,stimuli/vertical.bmp,stimuli/circle.bmp,stimuli/EmptyFrame.bmp,stimuli/RedFrame.bmp,2,Shape,None,3,1,1.0,91.3774642944336,91.3774642944336,0.0,95.37824249267578,95.37824249267578,0.0,94.38088989257812,94.38088989257812,0.0,1.0,1.0,0.0,'2',0.9520173072814941,0.9520173072814941,0.0,19.0
Shape,stimuli/vertical.bmp,stimuli/horizontal.bmp,stimuli/vertical.bmp,stimuli/EmptyFrame.bmp,stimuli/RedFrame.bmp,2,Shape,None,3,1,1.0,95.4040298461914,95.4040298461914,0.0,99.39336395263672,99.39336395263672,0.0,98.40690612792969,98.40690612792969,0.0,1.0,1.0,0.0,'2',0.9014301896095276,0.9014301896095276,0.0,20.0
Shape,stimuli/vertical.bmp,stimuli/vertical.bmp,stimuli/circle.bmp,stimuli/EmptyFrame.bmp,stimuli/RedFrame.bmp,1,Shape,None,3,1,1.0,99.42499542236328,99.42499542236328,0.0,103.40711212158203,103.40711212158203,0.0,102.42023468017578,102.42023468017578,0.0,1.0,1.0,0.0,'1',0.7692974805831909,0.7692974805831909,0.0,21.0
MatchFaces,stimuli/MatchFaces.bmp,stimuli/EmptyFace.bmp,stimuli/EmptyFace.bmp,stimuli/EmptyFrame.bmp,stimuli/EmptyFrame.bmp,Null,None,None,3,1,1.0,103.59275817871094,103.59275817871094,0.0,107.4120101928711,107.4120101928711,0.0,106.43893432617188,106.43893432617188,0.0,0.0,0.0,0.0,,,,,22.0
Neutral,stimuli/20M_NE_C.BMP,stimuli/21M_NE_C.BMP,stimuli/20M_NE_C.BMP,stimuli/EmptyFrame.bmp,stimuli/RedFrame.bmp,2,Neutral,Male,3,1,1.0,107.48319244384766,107.48319244384766,0.0,111.42916107177734,111.42916107177734,0.0,110.4373550415039,110.4373550415039,0.0,1.0,1.0,0.0,'2',0.8136672973632812,0.8136672973632812,0.0,23.0
Neutral,stimuli/01F_NE_C.bmp,stimuli/01F_NE_C.bmp,stimuli/02F_NE_C.bmp,stimuli/EmptyFrame.bmp,stimuli/RedFrame.bmp,1,Neutral,Female,3,1,1.0,111.45240020751953,111.45240020751953,0.0,115.45374298095703,115.45374298095703,0.0,114.46723937988281,114.46723937988281,0.0,1.0,1.0,0.0,'1',0.8858975172042847,0.8858975172042847,0.0,24.0
Neutral,stimuli/22M_NE_C.BMP,stimuli/23M_NE_C.BMP,stimuli/22M_NE_C.BMP,stimuli/EmptyFrame.bmp,stimuli/RedFrame.bmp,2,Neutral,Male,3,1,1.0,115.47817993164062,115.47817993164062,0.0,119.46661376953125,119.46661376953125,0.0,118.48335266113281,118.48335266113281,0.0,1.0,1.0,0.0,'2',0.9219961762428284,0.9219961762428284,0.0,25.0
Neutral,stimuli/24M_NE_C.BMP,stimuli/24M_NE_C.BMP,stimuli/25M_NE_C.BMP,stimuli/EmptyFrame.bmp,stimuli/RedFrame.bmp,1,Neutral,Male,3,1,1.0,119.48680877685547,119.48680877685547,0.0,123.47838592529297,123.47838592529297,0.0,122.49982452392578,122.49982452392578,0.0,1.0,1.0,0.0,'1',1.3492200374603271,1.3492200374603271,0.0,26.0
Neutral,stimuli/03F_NE_C.bmp,stimuli/05F_NE_C.bmp,stimuli/03F_NE_C.bmp,stimuli/EmptyFrame.bmp,stimuli/RedFrame.bmp,2,Neutral,Female,3,1,1.0,123.50418090820312,123.50418090820312,0.0,127.4894790649414,127.4894790649414,0.0,126.50202941894531,126.50202941894531,0.0,1.0,1.0,0.0,'2',1.2890790700912476,1.2890790700912476,0.0,27.0
Neutral,stimuli/26M_NE_C.BMP,stimuli/26M_NE_C.BMP,stimuli/27M_NE_C.BMP,stimuli/EmptyFrame.bmp,stimuli/RedFrame.bmp,1,Neutral,Male,3,1,1.0,127.51595306396484,127.51595306396484,0.0,131.50355529785156,131.50355529785156,0.0,130.51788330078125,130.51788330078125,0.0,1.0,1.0,0.0,'1',0.7015534043312073,0.7015534043312073,0.0,28.0
Neutral,stimuli/06F_NE_C.bmp,stimuli/07F_NE_C.BMP,stimuli/06F_NE_C.bmp,stimuli/EmptyFrame.bmp,stimuli/RedFrame.bmp,2,Neutral,Female,3,1,1.0,131.53463745117188,131.53463745117188,0.0,135.527099609375,135.527099609375,0.0,134.5263671875,134.5263671875,0.0,1.0,1.0,0.0,'2',0.8763625025749207,0.8763625025749207,0.0,29.0
Neutral,stimuli/08F_NE_C.BMP,stimuli/08F_NE_C.BMP,stimuli/09F_NE_C.BMP,stimuli/EmptyFrame.bmp,stimuli/RedFrame.bmp,1,Neutral,Female,3,1,1.0,135.548828125,135.548828125,0.0,139.5413818359375,139.5413818359375,0.0,138.55543518066406,138.55543518066406,0.0,1.0,1.0,0.0,'1',0.7610577940940857,0.7610577940940857,0.0,30.0
Neutral,stimuli/28M_NE_C.BMP,stimuli/29M_NE_C.BMP,stimuli/28M_NE_C.BMP,stimuli/EmptyFrame.bmp,stimuli/RedFrame.bmp,2,Neutral,Male,3,1,1.0,139.5648193359375,139.5648193359375,0.0,143.5533447265625,143.5533447265625,0.0,142.57264709472656,142.57264709472656,0.0,1.0,1.0,0.0,'2',0.7907174825668335,0.7907174825668335,0.0,31.0
Neutral,stimuli/10F_NE_C.BMP,stimuli/10F_NE_C.BMP,stimuli/06F_NE_C.bmp,stimuli/EmptyFrame.bmp,stimuli/RedFrame.bmp,1,Neutral,Female,3,1,1.0,143.57232666015625,143.57232666015625,0.0,147.5719451904297,147.5719451904297,0.0,146.58412170410156,146.58412170410156,0.0,1.0,1.0,0.0,'1',0.8925352096557617,0.8925352096557617,0.0,32.0
MatchFaces,stimuli/MatchFaces.bmp,stimuli/EmptyFace.bmp,stimuli/EmptyFace.bmp,stimuli/EmptyFrame.bmp,stimuli/EmptyFrame.bmp,Null,None,None,3,1,1.0,147.79847717285156,147.79847717285156,0.0,151.5823211669922,151.5823211669922,0.0,150.58984375,150.58984375,0.0,0.0,0.0,0.0,,,,,33.0
Fear,stimuli/07F_FE_O.BMP,stimuli/07F_FE_O.BMP,stimuli/14F_FE_O.BMP,stimuli/EmptyFrame.bmp,stimuli/RedFrame.bmp,1,Fear,Female,3,1,1.0,151.6497344970703,151.6497344970703,0.0,155.61053466796875,155.61053466796875,0.0,154.61207580566406,154.61207580566406,0.0,1.0,1.0,0.0,'1',0.7720543146133423,0.7720543146133423,0.0,34.0
Fear,stimuli/25M_FE_O.BMP,stimuli/29M_FE_O.BMP,stimuli/25M_FE_O.BMP,stimuli/EmptyFrame.bmp,stimuli/RedFrame.bmp,2,Fear,Male,3,1,1.0,155.64303588867188,155.64303588867188,0.0,159.62245178222656,159.62245178222656,0.0,158.64581298828125,158.64581298828125,0.0,1.0,1.0,0.0,'2',0.7777332067489624,0.7777332067489624,0.0,35.0
Fear,stimuli/26M_FE_O.BMP,stimuli/26M_FE_O.BMP,stimuli/28M_FE_O.BMP,stimuli/EmptyFrame.bmp,stimuli/RedFrame.bmp,1,Fear,Male,3,1,1.0,159.6492462158203,159.6492462158203,0.0,163.64486694335938,163.64486694335938,0.0,162.6532440185547,162.6532440185547,0.0,1.0,1.0,0.0,'1',0.7284181118011475,0.7284181118011475,0.0,36.0
Fear,stimuli/08F_FE_O.BMP,stimuli/13F_FE_O.BMP,stimuli/08F_FE_O.BMP,stimuli/EmptyFrame.bmp,stimuli/RedFrame.bmp,2,Fear,Female,3,1,1.0,163.66929626464844,163.66929626464844,0.0,167.65704345703125,167.65704345703125,0.0,166.67286682128906,166.67286682128906,0.0,1.0,1.0,0.0,'2',0.7708104848861694,0.7708104848861694,0.0,37.0
Fear,stimuli/09F_FE_O.BMP,stimuli/09F_FE_O.BMP,stimuli/12F_FE_O.BMP,stimuli/EmptyFrame.bmp,stimuli/RedFrame.bmp,1,Fear,Female,3,1,1.0,167.6810760498047,167.6810760498047,0.0,171.6806640625,171.6806640625,0.0,170.68280029296875,170.68280029296875,0.0,1.0,1.0,0.0,'1',0.6917669773101807,0.6917669773101807,0.0,38.0
Fear,stimuli/27M_FE_O.BMP,stimuli/26M_FE_O.BMP,stimuli/27M_FE_O.BMP,stimuli/EmptyFrame.bmp,stimuli/RedFrame.bmp,2,Fear,Male,3,1,1.0,171.7020721435547,171.7020721435547,0.0,175.69248962402344,175.69248962402344,0.0,174.71505737304688,174.71505737304688,0.0,1.0,1.0,0.0,'2',0.8023692965507507,0.8023692965507507,0.0,39.0
Fear,stimuli/28M_FE_O.BMP,stimuli/28M_FE_O.BMP,stimuli/25M_FE_O.BMP,stimuli/EmptyFrame.bmp,stimuli/RedFrame.bmp,1,Fear,Male,3,1,1.0,175.71566772460938,175.71566772460938,0.0,179.70220947265625,179.70220947265625,0.0,178.7276153564453,178.7276153564453,0.0,1.0,1.0,0.0,'1',0.6845983266830444,0.6845983266830444,0.0,40.0
Fear,stimuli/10F_FE_O.BMP,stimuli/11F_FE_O.BMP,stimuli/10F_FE_O.BMP,stimuli/EmptyFrame.bmp,stimuli/RedFrame.bmp,2,Fear,Female,3,1,1.0,179.72605895996094,179.72605895996094,0.0,183.71588134765625,183.71588134765625,0.0,182.72337341308594,182.72337341308594,0.0,1.0,1.0,0.0,'2',0.5665339231491089,0.5665339231491089,0.0,41.0
Fear,stimuli/29M_FE_O.BMP,stimuli/29M_FE_O.BMP,stimuli/24M_FE_O.BMP,stimuli/EmptyFrame.bmp,stimuli/RedFrame.bmp,1,Fear,Male,3,1,1.0,183.7405242919922,183.7405242919922,0.0,187.7385711669922,187.7385711669922,0.0,186.74205017089844,186.74205017089844,0.0,1.0,1.0,0.0,'1',0.6774200797080994,0.6774200797080994,0.0,42.0
Fear,stimuli/11F_FE_O.BMP,stimuli/10F_FE_O.BMP,stimuli/11F_FE_O.BMP,stimuli/EmptyFrame.bmp,stimuli/RedFrame.bmp,2,Fear,Female,3,1,1.0,187.75991821289062,187.75991821289062,0.0,191.75042724609375,191.75042724609375,0.0,190.77032470703125,190.77032470703125,0.0,1.0,1.0,0.0,'2',0.5801064968109131,0.5801064968109131,0.0,43.0
MatchFaces,stimuli/MatchFaces.bmp,stimuli/EmptyFace.bmp,stimuli/EmptyFace.bmp,stimuli/EmptyFrame.bmp,stimuli/EmptyFrame.bmp,Null,None,None,3,1,1.0,191.966552734375,191.966552734375,0.0,195.75355529785156,195.75355529785156,0.0,194.76217651367188,194.76217651367188,0.0,0.0,0.0,0.0,,,,,44.0
Happy,stimuli/19F_HA_O.BMP,stimuli/19F_HA_O.BMP,stimuli/18F_HA_O.BMP,stimuli/EmptyFrame.bmp,stimuli/RedFrame.bmp,1,Happy,Female,3,1,1.0,195.8169708251953,195.8169708251953,0.0,199.7766571044922,199.7766571044922,0.0,198.7884521484375,198.7884521484375,0.0,1.0,1.0,0.0,'1',0.7155303955078125,0.7155303955078125,0.0,45.0
Happy,stimuli/17F_HA_O.BMP,stimuli/16F_HA_O.BMP,stimuli/17F_HA_O.BMP,stimuli/EmptyFrame.bmp,stimuli/RedFrame.bmp,2,Happy,Female,3,1,1.0,199.80316162109375,199.80316162109375,0.0,203.7952880859375,203.7952880859375,0.0,202.80860900878906,202.80860900878906,0.0,1.0,1.0,0.0,'2',0.9162582159042358,0.9162582159042358,0.0,46.0
Happy,stimuli/43M_HA_O.BMP,stimuli/42M_HA_O.BMP,stimuli/43M_HA_O.BMP,stimuli/EmptyFrame.bmp,stimuli/RedFrame.bmp,2,Happy,Male,3,1,1.0,203.8178253173828,203.8178253173828,0.0,207.8175048828125,207.8175048828125,0.0,206.8212890625,206.8212890625,0.0,1.0,1.0,0.0,'2',0.8110808730125427,0.8110808730125427,0.0,47.0
Happy,stimuli/41M_HA_O.BMP,stimuli/41M_HA_O.BMP,stimuli/40M_HA_O.BMP,stimuli/EmptyFrame.bmp,stimuli/RedFrame.bmp,1,Happy,Male,3,1,1.0,207.84036254882812,207.84036254882812,0.0,211.83177185058594,211.83177185058594,0.0,210.84410095214844,210.84410095214844,0.0,1.0,1.0,0.0,'1',0.7638170123100281,0.7638170123100281,0.0,48.0
Happy,stimuli/15F_HA_O.BMP,stimuli/15F_HA_O.BMP,stimuli/14F_HA_O.BMP,stimuli/EmptyFrame.bmp,stimuli/RedFrame.bmp,1,Happy,Female,3,1,1.0,211.8517303466797,211.8517303466797,0.0,215.85108947753906,215.85108947753906,0.0,214.8678741455078,214.8678741455078,0.0,1.0,1.0,0.0,'1',0.7926182150840759,0.7926182150840759,0.0,49.0
Happy,stimuli/13F_HA_O.BMP,stimuli/13F_HA_O.BMP,stimuli/12F_HA_O.BMP,stimuli/EmptyFrame.bmp,stimuli/RedFrame.bmp,1,Happy,Female,3,1,1.0,215.8732147216797,215.8732147216797,0.0,219.87490844726562,219.87490844726562,0.0,218.8828125,218.8828125,0.0,1.0,1.0,0.0,'1',0.851347804069519,0.851347804069519,0.0,50.0
Happy,stimuli/39M_HA_O.BMP,stimuli/38M_HA_O.BMP,stimuli/39M_HA_O.BMP,stimuli/EmptyFrame.bmp,stimuli/RedFrame.bmp,2,Happy,Male,3,1,1.0,219.89889526367188,219.89889526367188,0.0,223.89691162109375,223.89691162109375,0.0,222.91140747070312,222.91140747070312,0.0,1.0,1.0,0.0,'2',0.849065899848938,0.849065899848938,0.0,51.0
Happy,stimuli/37M_HA_O.BMP,stimuli/37M_HA_O.BMP,stimuli/36M_HA_O.BMP,stimuli/EmptyFrame.bmp,stimuli/RedFrame.bmp,1,Happy,Male,3,1,1.0,223.9154510498047,223.9154510498047,0.0,227.91184997558594,227.91184997558594,0.0,226.9286651611328,226.9286651611328,0.0,1.0,1.0,0.0,'1',0.9252015948295593,0.9252015948295593,0.0,52.0
Happy,stimuli/35M_HA_O.BMP,stimuli/34M_HA_O.BMP,stimuli/35M_HA_O.BMP,stimuli/EmptyFrame.bmp,stimuli/RedFrame.bmp,2,Happy,Male,3,1,1.0,227.93460083007812,227.93460083007812,0.0,231.92909240722656,231.92909240722656,0.0,230.93649291992188,230.93649291992188,0.0,1.0,1.0,0.0,'2',0.957796573638916,0.957796573638916,0.0,53.0
Happy,stimuli/11F_HA_O.BMP,stimuli/10F_HA_O.BMP,stimuli/11F_HA_O.BMP,stimuli/EmptyFrame.bmp,stimuli/RedFrame.bmp,2,Happy,Female,3,1,1.0,231.9521026611328,231.9521026611328,0.0,235.94529724121094,235.94529724121094,0.0,234.9601593017578,234.9601593017578,0.0,1.0,1.0,0.0,'2',0.7332649827003479,0.7332649827003479,0.0,54.0
Match Shape,stimuli/MatchShapes.bmp,stimuli/EmptyFace.bmp,stimuli/EmptyFace.bmp,stimuli/EmptyFrame.bmp,stimuli/EmptyFrame.bmp,Null,None,None,3,1,1.0,235.97312927246094,235.97312927246094,0.0,239.95150756835938,239.95150756835938,0.0,238.9657440185547,238.9657440185547,0.0,0.0,0.0,0.0,,,,,55.0
Shape,stimuli/circle.bmp,stimuli/vertical.bmp,stimuli/circle.bmp,stimuli/EmptyFrame.bmp,stimuli/RedFrame.bmp,2,Shape,None,3,1,1.0,239.9853515625,239.9853515625,0.0,243.97430419921875,243.97430419921875,0.0,242.97425842285156,242.97425842285156,0.0,1.0,1.0,0.0,'2',0.6213061809539795,0.6213061809539795,0.0,56.0
Shape,stimuli/horizontal.bmp,stimuli/circle.bmp,stimuli/horizontal.bmp,stimuli/EmptyFrame.bmp,stimuli/RedFrame.bmp,2,Shape,None,3,1,1.0,243.99542236328125,243.99542236328125,0.0,247.99288940429688,247.99288940429688,0.0,247.00303649902344,247.00303649902344,0.0,1.0,1.0,0.0,'2',0.6748976111412048,0.6748976111412048,0.0,57.0
Shape,stimuli/vertical.bmp,stimuli/vertical.bmp,stimuli/horizontal.bmp,stimuli/EmptyFrame.bmp,stimuli/RedFrame.bmp,1,Shape,None,3,1,1.0,248.0132293701172,248.0132293701172,0.0,252.0048828125,252.0048828125,0.0,251.0158233642578,251.0158233642578,0.0,1.0,1.0,0.0,'1',0.8297364115715027,0.8297364115715027,0.0,58.0
Shape,stimuli/horizontal.bmp,stimuli/circle.bmp,stimuli/horizontal.bmp,stimuli/EmptyFrame.bmp,stimuli/RedFrame.bmp,2,Shape,None,3,1,1.0,252.02728271484375,252.02728271484375,0.0,256.01556396484375,256.01556396484375,0.0,255.031982421875,255.031982421875,0.0,1.0,1.0,0.0,'2',0.5438011884689331,0.5438011884689331,0.0,59.0
Shape,stimuli/horizontal.bmp,stimuli/horizontal.bmp,stimuli/vertical.bmp,stimuli/EmptyFrame.bmp,stimuli/RedFrame.bmp,1,Shape,None,3,1,1.0,256.03399658203125,256.03399658203125,0.0,260.0346984863281,260.0346984863281,0.0,259.04156494140625,259.04156494140625,0.0,1.0,1.0,0.0,'1',0.7344300746917725,0.7344300746917725,0.0,60.0
Shape,stimuli/vertical.bmp,stimuli/vertical.bmp,stimuli/circle.bmp,stimuli/EmptyFrame.bmp,stimuli/RedFrame.bmp,1,Shape,None,3,1,1.0,260.0578918457031,260.0578918457031,0.0,264.0525207519531,264.0525207519531,0.0,263.0547180175781,263.0547180175781,0.0,1.0,1.0,0.0,'1',0.5854346752166748,0.5854346752166748,0.0,61.0
Shape,stimuli/circle.bmp,stimuli/horizontal.bmp,stimuli/circle.bmp,stimuli/EmptyFrame.bmp,stimuli/RedFrame.bmp,2,Shape,None,3,1,1.0,264.07562255859375,264.07562255859375,0.0,268.0696716308594,268.0696716308594,0.0,267.0751647949219,267.0751647949219,0.0,1.0,1.0,0.0,'2',0.7109141945838928,0.7109141945838928,0.0,62.0
Shape,stimuli/circle.bmp,stimuli/vertical.bmp,stimuli/circle.bmp,stimuli/EmptyFrame.bmp,stimuli/RedFrame.bmp,2,Shape,None,3,1,1.0,268.0928039550781,268.0928039550781,0.0,272.0874938964844,272.0874938964844,0.0,271.0944519042969,271.0944519042969,0.0,1.0,1.0,0.0,'2',0.7353646159172058,0.7353646159172058,0.0,63.0
Shape,stimuli/vertical.bmp,stimuli/vertical.bmp,stimuli/horizontal.bmp,stimuli/EmptyFrame.bmp,stimuli/RedFrame.bmp,1,Shape,None,3,1,1.0,272.1117248535156,272.1117248535156,0.0,276.1075134277344,276.1075134277344,0.0,275.1174621582031,275.1174621582031,0.0,1.0,1.0,0.0,'1',0.6626828908920288,0.6626828908920288,0.0,64.0
Shape,stimuli/horizontal.bmp,stimuli/horizontal.bmp,stimuli/circle.bmp,stimuli/EmptyFrame.bmp,stimuli/RedFrame.bmp,1,Shape,None,3,1,1.0,276.13470458984375,276.13470458984375,0.0,280.1287841796875,280.1287841796875,0.0,279.13323974609375,279.13323974609375,0.0,1.0,1.0,0.0,'1',0.9182589054107666,0.9182589054107666,0.0,65.0
MatchFaces,stimuli/MatchFaces.bmp,stimuli/EmptyFace.bmp,stimuli/EmptyFace.bmp,stimuli/EmptyFrame.bmp,stimuli/EmptyFrame.bmp,Null,None,None,3,1,1.0,280.3302917480469,280.3302917480469,0.0,284.13348388671875,284.13348388671875,0.0,283.1410217285156,283.1410217285156,0.0,0.0,0.0,0.0,,,,,66.0
Anger,stimuli/42M_AN_O.BMP,stimuli/42M_AN_O.BMP,stimuli/43M_AN_O.BMP,stimuli/EmptyFrame.bmp,stimuli/RedFrame.bmp,1,Anger,Male,3,1,1.0,284.200927734375,284.200927734375,0.0,288.1513977050781,288.1513977050781,0.0,287.17095947265625,287.17095947265625,0.0,1.0,1.0,0.0,'1',0.8920844197273254,0.8920844197273254,0.0,67.0
Anger,stimuli/07F_AN_O.BMP,stimuli/07F_AN_O.BMP,stimuli/14F_AN_O.BMP,stimuli/EmptyFrame.bmp,stimuli/RedFrame.bmp,1,Anger,Female,3,1,1.0,288.17523193359375,288.17523193359375,0.0,292.1649169921875,292.1649169921875,0.0,291.181396484375,291.181396484375,0.0,1.0,1.0,0.0,'1',0.6763340830802917,0.6763340830802917,0.0,68.0
Anger,stimuli/40M_AN_O.BMP,stimuli/41M_AN_O.BMP,stimuli/40M_AN_O.BMP,stimuli/EmptyFrame.bmp,stimuli/RedFrame.bmp,2,Anger,Male,3,1,1.0,292.1925964355469,292.1925964355469,0.0,296.1737365722656,296.1737365722656,0.0,295.19696044921875,295.19696044921875,0.0,1.0,1.0,0.0,'2',0.5785993933677673,0.5785993933677673,0.0,69.0
Anger,stimuli/38M_AN_O.BMP,stimuli/39M_AN_O.BMP,stimuli/38M_AN_O.BMP,stimuli/EmptyFrame.bmp,stimuli/RedFrame.bmp,2,Anger,Male,3,1,1.0,296.1981201171875,296.1981201171875,0.0,300.1860046386719,300.1860046386719,0.0,299.2006530761719,299.2006530761719,0.0,1.0,1.0,0.0,'2',0.815980076789856,0.815980076789856,0.0,70.0
Anger,stimuli/08F_AN_O.BMP,stimuli/08F_AN_O.BMP,stimuli/13F_AN_O.BMP,stimuli/EmptyFrame.bmp,stimuli/RedFrame.bmp,1,Anger,Female,3,1,1.0,300.2054138183594,300.2054138183594,0.0,304.21038818359375,304.21038818359375,0.0,303.20892333984375,303.20892333984375,0.0,1.0,1.0,0.0,'1',0.6727173924446106,0.6727173924446106,0.0,71.0
Anger,stimuli/36M_AN_O.BMP,stimuli/37M_AN_O.BMP,stimuli/36M_AN_O.BMP,stimuli/EmptyFrame.bmp,stimuli/RedFrame.bmp,2,Anger,Male,3,1,1.0,304.23126220703125,304.23126220703125,0.0,308.2263488769531,308.2263488769531,0.0,307.2372131347656,307.2372131347656,0.0,1.0,1.0,0.0,'2',0.6185916066169739,0.6185916066169739,0.0,72.0
Anger,stimuli/09F_AN_O.BMP,stimuli/12F_AN_O.BMP,stimuli/09F_AN_O.BMP,stimuli/EmptyFrame.bmp,stimuli/RedFrame.bmp,2,Anger,Female,3,1,1.0,308.25006103515625,308.25006103515625,0.0,312.2491455078125,312.2491455078125,0.0,311.26934814453125,311.26934814453125,0.0,1.0,1.0,0.0,'2',0.6169986128807068,0.6169986128807068,0.0,73.0
Anger,stimuli/34M_AN_O.BMP,stimuli/35M_AN_O.BMP,stimuli/34M_AN_O.BMP,stimuli/EmptyFrame.bmp,stimuli/RedFrame.bmp,2,Anger,Male,3,1,1.0,312.2747497558594,312.2747497558594,0.0,316.27032470703125,316.27032470703125,0.0,315.2825622558594,315.2825622558594,0.0,1.0,1.0,0.0,'2',0.6758856773376465,0.6758856773376465,0.0,74.0
Anger,stimuli/10F_AN_O.BMP,stimuli/10F_AN_O.BMP,stimuli/11F_AN_O.BMP,stimuli/EmptyFrame.bmp,stimuli/RedFrame.bmp,1,Anger,Female,3,1,1.0,316.2950439453125,316.2950439453125,0.0,320.287353515625,320.287353515625,0.0,319.30291748046875,319.30291748046875,0.0,1.0,1.0,0.0,'1',0.7397673726081848,0.7397673726081848,0.0,75.0
Anger,stimuli/12F_AN_O.BMP,stimuli/12F_AN_O.BMP,stimuli/13F_AN_O.BMP,stimuli/EmptyFrame.bmp,stimuli/RedFrame.bmp,1,Anger,Female,3,1,1.0,320.306884765625,320.306884765625,0.0,324.3044738769531,324.3044738769531,0.0,323.3224182128906,323.3224182128906,0.0,1.0,1.0,0.0,'1',0.9911925792694092,0.9911925792694092,0.0,76.0
MatchFaces,stimuli/MatchFaces.bmp,stimuli/EmptyFace.bmp,stimuli/EmptyFace.bmp,stimuli/EmptyFrame.bmp,stimuli/EmptyFrame.bmp,Null,None,None,3,1,1.0,324.4965515136719,324.4965515136719,0.0,328.30572509765625,328.30572509765625,0.0,327.3169250488281,327.3169250488281,0.0,0.0,0.0,0.0,,,,,77.0
Happy,stimuli/20M_HA_O.BMP,stimuli/21M_HA_O.BMP,stimuli/20M_HA_O.BMP,stimuli/EmptyFrame.bmp,stimuli/RedFrame.bmp,2,Happy,Male,3,1,1.0,328.39697265625,328.39697265625,0.0,332.3253173828125,332.3253173828125,0.0,331.3338623046875,331.3338623046875,0.0,1.0,1.0,0.0,'2',0.966339111328125,0.966339111328125,0.0,78.0
Happy,stimuli/01F_HA_O.bmp,stimuli/01F_HA_O.bmp,stimuli/02F_HA_O.bmp,stimuli/EmptyFrame.bmp,stimuli/RedFrame.bmp,1,Happy,Female,3,1,1.0,332.35009765625,332.35009765625,0.0,336.3404846191406,336.3404846191406,0.0,335.3514404296875,335.3514404296875,0.0,1.0,1.0,0.0,'1',0.6746522784233093,0.6746522784233093,0.0,79.0
Happy,stimuli/22M_HA_O.BMP,stimuli/23M_HA_O.BMP,stimuli/22M_HA_O.BMP,stimuli/EmptyFrame.bmp,stimuli/RedFrame.bmp,2,Happy,Male,3,1,1.0,336.3695373535156,336.3695373535156,0.0,340.3616943359375,340.3616943359375,0.0,339.37457275390625,339.37457275390625,0.0,1.0,1.0,0.0,'2',0.7634763121604919,0.7634763121604919,0.0,80.0
Happy,stimuli/24M_HA_O.BMP,stimuli/24M_HA_O.BMP,stimuli/25M_HA_O.BMP,stimuli/EmptyFrame.bmp,stimuli/RedFrame.bmp,1,Happy,Male,3,1,1.0,340.3870544433594,340.3870544433594,0.0,344.373046875,344.373046875,0.0,343.3912658691406,343.3912658691406,0.0,1.0,1.0,0.0,'1',0.9505077004432678,0.9505077004432678,0.0,81.0
Happy,stimuli/03F_HA_O.bmp,stimuli/05F_HA_O.bmp,stimuli/03F_HA_O.bmp,stimuli/EmptyFrame.bmp,stimuli/RedFrame.bmp,2,Happy,Female,3,1,1.0,344.3968811035156,344.3968811035156,0.0,348.3933410644531,348.3933410644531,0.0,347.4122314453125,347.4122314453125,0.0,1.0,1.0,0.0,'2',0.8992081880569458,0.8992081880569458,0.0,82.0
Happy,stimuli/26M_HA_O.BMP,stimuli/26M_HA_O.BMP,stimuli/27M_HA_O.BMP,stimuli/EmptyFrame.bmp,stimuli/RedFrame.bmp,1,Happy,Male,3,1,1.0,348.4200439453125,348.4200439453125,0.0,352.4094543457031,352.4094543457031,0.0,351.4147033691406,351.4147033691406,0.0,1.0,1.0,0.0,'1',1.085654377937317,1.085654377937317,0.0,83.0
Happy,stimuli/06F_HA_O.bmp,stimuli/07F_HA_O.BMP,stimuli/06F_HA_O.bmp,stimuli/EmptyFrame.bmp,stimuli/RedFrame.bmp,2,Happy,Female,3,1,1.0,352.4315185546875,352.4315185546875,0.0,356.4237976074219,356.4237976074219,0.0,355.43646240234375,355.43646240234375,0.0,1.0,1.0,0.0,'2',0.9116232991218567,0.9116232991218567,0.0,84.0
Happy,stimuli/08F_HA_O.BMP,stimuli/08F_HA_O.BMP,stimuli/09F_HA_O.BMP,stimuli/EmptyFrame.bmp,stimuli/RedFrame.bmp,1,Happy,Female,3,1,1.0,356.4469299316406,356.4469299316406,0.0,360.438720703125,360.438720703125,0.0,359.45770263671875,359.45770263671875,0.0,1.0,1.0,0.0,'1',0.8449205756187439,0.8449205756187439,0.0,85.0
Happy,stimuli/28M_HA_O.BMP,stimuli/29M_HA_O.BMP,stimuli/28M_HA_O.BMP,stimuli/EmptyFrame.bmp,stimuli/RedFrame.bmp,2,Happy,Male,3,1,1.0,360.4656677246094,360.4656677246094,0.0,364.46160888671875,364.46160888671875,0.0,363.488037109375,363.488037109375,0.0,1.0,1.0,0.0,'2',0.8007885813713074,0.8007885813713074,0.0,86.0
Happy,stimuli/10F_HA_O.BMP,stimuli/10F_HA_O.BMP,stimuli/06F_HA_O.bmp,stimuli/EmptyFrame.bmp,stimuli/RedFrame.bmp,1,Happy,Female,3,1,1.0,364.48626708984375,364.48626708984375,0.0,368.4846496582031,368.4846496582031,0.0,367.49163818359375,367.49163818359375,0.0,1.0,1.0,0.0,'1',0.7681695818901062,0.7681695818901062,0.0,87.0
MatchFaces,stimuli/MatchFaces.bmp,stimuli/EmptyFace.bmp,stimuli/EmptyFace.bmp,stimuli/EmptyFrame.bmp,stimuli/EmptyFrame.bmp,Null,None,None,3,1,1.0,368.66864013671875,368.66864013671875,0.0,372.4976501464844,372.4976501464844,0.0,371.501708984375,371.501708984375,0.0,0.0,0.0,0.0,,,,,88.0
Neutral,stimuli/07F_NE_C.BMP,stimuli/07F_NE_C.BMP,stimuli/14F_NE_C.BMP,stimuli/EmptyFrame.bmp,stimuli/RedFrame.bmp,1,Neutral,Female,3,1,1.0,372.57513427734375,372.57513427734375,0.0,376.51348876953125,376.51348876953125,0.0,375.53314208984375,375.53314208984375,0.0,1.0,1.0,0.0,'1',0.7444289922714233,0.7444289922714233,0.0,89.0
Neutral,stimuli/25M_NE_C.BMP,stimuli/29M_NE_C.BMP,stimuli/25M_NE_C.BMP,stimuli/EmptyFrame.bmp,stimuli/RedFrame.bmp,2,Neutral,Male,3,1,1.0,376.5378112792969,376.5378112792969,0.0,380.5263671875,380.5263671875,0.0,379.5476379394531,379.5476379394531,0.0,1.0,1.0,0.0,'2',0.7502031922340393,0.7502031922340393,0.0,90.0
Neutral,stimuli/26M_NE_C.BMP,stimuli/26M_NE_C.BMP,stimuli/28M_NE_C.BMP,stimuli/EmptyFrame.bmp,stimuli/RedFrame.bmp,1,Neutral,Male,3,1,1.0,380.5509033203125,380.5509033203125,0.0,384.5493469238281,384.5493469238281,0.0,383.5525817871094,383.5525817871094,0.0,1.0,1.0,0.0,'1',0.7074130177497864,0.7074130177497864,0.0,91.0
Neutral,stimuli/08F_NE_C.BMP,stimuli/13F_NE_C.BMP,stimuli/08F_NE_C.BMP,stimuli/EmptyFrame.bmp,stimuli/RedFrame.bmp,2,Neutral,Female,3,1,1.0,384.56988525390625,384.56988525390625,0.0,388.5674133300781,388.5674133300781,0.0,387.59283447265625,387.59283447265625,0.0,1.0,1.0,0.0,'2',0.832423985004425,0.832423985004425,0.0,92.0
Neutral,stimuli/09F_NE_C.BMP,stimuli/09F_NE_C.BMP,stimuli/12F_NE_C.BMP,stimuli/EmptyFrame.bmp,stimuli/RedFrame.bmp,1,Neutral,Female,3,1,1.0,388.5946044921875,388.5946044921875,0.0,392.589111328125,392.589111328125,0.0,391.6001281738281,391.6001281738281,0.0,1.0,1.0,0.0,'1',0.711048424243927,0.711048424243927,0.0,93.0
Neutral,stimuli/27M_NE_C.BMP,stimuli/26M_NE_C.BMP,stimuli/27M_NE_C.BMP,stimuli/EmptyFrame.bmp,stimuli/RedFrame.bmp,2,Neutral,Male,3,1,1.0,392.6163635253906,392.6163635253906,0.0,396.6019287109375,396.6019287109375,0.0,395.6219177246094,395.6219177246094,0.0,1.0,1.0,0.0,'2',0.8041650056838989,0.8041650056838989,0.0,94.0
Neutral,stimuli/28M_NE_C.BMP,stimuli/28M_NE_C.BMP,stimuli/25M_NE_C.BMP,stimuli/EmptyFrame.bmp,stimuli/RedFrame.bmp,1,Neutral,Male,3,1,1.0,396.6218566894531,396.6218566894531,0.0,400.6207580566406,400.6207580566406,0.0,399.63226318359375,399.63226318359375,0.0,1.0,1.0,0.0,'1',0.7785838842391968,0.7785838842391968,0.0,95.0
Neutral,stimuli/10F_NE_C.BMP,stimuli/11F_NE_C.BMP,stimuli/10F_NE_C.BMP,stimuli/EmptyFrame.bmp,stimuli/RedFrame.bmp,2,Neutral,Female,3,1,1.0,400.6451416015625,400.6451416015625,0.0,404.635498046875,404.635498046875,0.0,403.65374755859375,403.65374755859375,0.0,1.0,1.0,0.0,'2',0.7696695923805237,0.7696695923805237,0.0,96.0
Neutral,stimuli/29M_NE_C.BMP,stimuli/29M_NE_C.BMP,stimuli/24M_NE_C.BMP,stimuli/EmptyFrame.bmp,stimuli/RedFrame.bmp,1,Neutral,Male,3,1,1.0,404.6567077636719,404.6567077636719,0.0,408.6476745605469,408.6476745605469,0.0,407.6670837402344,407.6670837402344,0.0,1.0,1.0,0.0,'1',0.8286790251731873,0.8286790251731873,0.0,97.0
Neutral,stimuli/11F_NE_C.BMP,stimuli/10F_NE_C.BMP,stimuli/11F_NE_C.BMP,stimuli/EmptyFrame.bmp,stimuli/RedFrame.bmp,2,Neutral,Female,3,1,1.0,408.66778564453125,408.66778564453125,0.0,412.665771484375,412.665771484375,0.0,411.6802673339844,411.6802673339844,0.0,1.0,1.0,0.0,'2',0.6309279799461365,0.6309279799461365,0.0,98.0
MatchFaces,stimuli/MatchFaces.bmp,stimuli/EmptyFace.bmp,stimuli/EmptyFace.bmp,stimuli/EmptyFrame.bmp,stimuli/EmptyFrame.bmp,Null,None,None,3,1,1.0,412.8549499511719,412.8549499511719,0.0,416.672607421875,416.672607421875,0.0,415.6781311035156,415.6781311035156,0.0,0.0,0.0,0.0,,,,,99.0
Fear,stimuli/23M_FE_O.BMP,stimuli/23M_FE_O.BMP,stimuli/24M_FE_O.BMP,stimuli/EmptyFrame.bmp,stimuli/RedFrame.bmp,1,Fear,Male,3,1,1.0,416.7391357421875,416.7391357421875,0.0,420.6833801269531,420.6833801269531,0.0,419.7001037597656,419.7001037597656,0.0,1.0,1.0,0.0,'1',0.914317786693573,0.914317786693573,0.0,100.0
Fear,stimuli/19F_FE_O.BMP,stimuli/18F_FE_O.BMP,stimuli/19F_FE_O.BMP,stimuli/EmptyFrame.bmp,stimuli/RedFrame.bmp,2,Fear,Female,3,1,1.0,420.7097473144531,420.7097473144531,0.0,424.694091796875,424.694091796875,0.0,423.7130432128906,423.7130432128906,0.0,1.0,1.0,0.0,'2',0.8957450985908508,0.8957450985908508,0.0,101.0
Fear,stimuli/17F_FE_O.BMP,stimuli/17F_FE_O.BMP,stimuli/16F_FE_O.BMP,stimuli/EmptyFrame.bmp,stimuli/RedFrame.bmp,1,Fear,Female,3,1,1.0,424.7174377441406,424.7174377441406,0.0,428.7044677734375,428.7044677734375,0.0,427.7184753417969,427.7184753417969,0.0,1.0,1.0,0.0,'1',0.8936231732368469,0.8936231732368469,0.0,102.0
Fear,stimuli/15F_FE_O.BMP,stimuli/18F_FE_O.BMP,stimuli/15F_FE_O.BMP,stimuli/EmptyFrame.bmp,stimuli/RedFrame.bmp,2,Fear,Female,3,1,1.0,428.7261962890625,428.7261962890625,0.0,432.7178955078125,432.7178955078125,0.0,431.7391662597656,431.7391662597656,0.0,1.0,1.0,0.0,'2',0.7212567925453186,0.7212567925453186,0.0,103.0
Fear,stimuli/21M_FE_O.BMP,stimuli/21M_FE_O.BMP,stimuli/22M_FE_O.BMP,stimuli/EmptyFrame.bmp,stimuli/RedFrame.bmp,1,Fear,Male,3,1,1.0,432.7387390136719,432.7387390136719,0.0,436.7351379394531,436.7351379394531,0.0,435.7538146972656,435.7538146972656,0.0,1.0,1.0,0.0,'1',0.9207000732421875,0.9207000732421875,0.0,104.0
Fear,stimuli/29M_FE_O.BMP,stimuli/30M_FE_O.BMP,stimuli/29M_FE_O.BMP,stimuli/EmptyFrame.bmp,stimuli/RedFrame.bmp,2,Fear,Male,3,1,1.0,436.7547607421875,436.7547607421875,0.0,440.74896240234375,440.74896240234375,0.0,439.7723693847656,439.7723693847656,0.0,1.0,1.0,0.0,'2',0.6908099055290222,0.6908099055290222,0.0,105.0
Fear,stimuli/31M_FE_O.BMP,stimuli/31M_FE_O.BMP,stimuli/38M_FE_O.BMP,stimuli/EmptyFrame.bmp,stimuli/RedFrame.bmp,1,Fear,Male,3,1,1.0,440.7684631347656,440.7684631347656,0.0,444.7669677734375,444.7669677734375,0.0,443.7767333984375,443.7767333984375,0.0,1.0,1.0,0.0,'1',0.7615432143211365,0.7615432143211365,0.0,106.0
Fear,stimuli/09F_FE_O.BMP,stimuli/07F_FE_O.BMP,stimuli/09F_FE_O.BMP,stimuli/EmptyFrame.bmp,stimuli/RedFrame.bmp,2,Fear,Female,3,1,1.0,444.792236328125,444.792236328125,0.0,448.7859802246094,448.7859802246094,0.0,447.7959289550781,447.7959289550781,0.0,1.0,1.0,0.0,'2',0.9331973791122437,0.9331973791122437,0.0,107.0
Fear,stimuli/11F_FE_O.BMP,stimuli/12F_FE_O.BMP,stimuli/11F_FE_O.BMP,stimuli/EmptyFrame.bmp,stimuli/RedFrame.bmp,2,Fear,Female,3,1,1.0,448.8096618652344,448.8096618652344,0.0,452.8020324707031,452.8020324707031,0.0,451.827880859375,451.827880859375,0.0,1.0,1.0,0.0,'2',0.9402340054512024,0.9402340054512024,0.0,108.0
Fear,stimuli/34M_FE_O.BMP,stimuli/34M_FE_O.BMP,stimuli/33M_FE_O.BMP,stimuli/EmptyFrame.bmp,stimuli/RedFrame.bmp,1,Fear,Male,3,1,1.0,452.821533203125,452.821533203125,0.0,456.8138732910156,456.8138732910156,0.0,455.83331298828125,455.83331298828125,0.0,1.0,1.0,0.0,'1',0.7179993987083435,0.7179993987083435,0.0,109.0

extraInfo
participant,sub012
session,002
date,2025_Jun_13_0856
expName,HaririTask_Ver1
psychopyVersion,3.0.1
frameRate,None
